subject_column,AssignedList_column,subject_dob_column,subject_age_column,subject_gender_column,trialnum_column,Stim_column,Type_column,Experiment_column,OrderGroup_column,ReactionTime_column,StimSide_column,StimPosition_column,Response_column,Valid_column,TrialEndSecs_column,PairID_column,List_column
10,2,2/8/95,20,f,1,Tim sniffed the perfume,Sensible,edin_semantics,sem_emo_sem_emo,1.3656131172902,2,1,1,1,282710.673472595,93,A
10,2,2/8/95,20,f,2,Erin tidied the garage,Sensible,edin_semantics,sem_emo_sem_emo,0.923860347480513,2,1,1,1,282712.343628928,77,A
10,2,2/8/95,20,f,3,Rose built the shed,Sensible,edin_semantics,sem_emo_sem_emo,1.12366579769878,1,1,1,1,282714.213625028,121,A
10,2,2/8/95,20,f,4,Josh crushed the ice,Sensible,edin_semantics,sem_emo_sem_emo,1.30189373338362,1,1,1,1,282716.260053342,81,A
10,2,2/8/95,20,f,5,Rob measured the curtains,Sensible,edin_semantics,sem_emo_sem_emo,0.973266242654063,2,2,2,1,282717.977168464,126,A
10,2,2/8/95,20,f,6,Zoe paid the debt,Sensible,edin_semantics,sem_emo_sem_emo,1.43192521540914,2,2,2,1,282720.153016003,134,A
10,2,2/8/95,20,f,7,The ham ate Tim,Non-sensible,edin_semantics,sem_emo_sem_emo,1.40799167921068,2,1,1,1,282722.305341171,67,A
10,2,2/8/95,20,f,8,Adam chewed the fat,Sensible,edin_semantics,sem_emo_sem_emo,1.26811436162097,2,2,2,1,282724.316444877,106,A
10,2,2/8/95,20,f,9,Fred chopped the carrots,Sensible,edin_semantics,sem_emo_sem_emo,1.25601321115391,2,2,2,1,282726.315802471,102,A
10,2,2/8/95,20,f,10,The flour weighed Jen,Non-sensible,edin_semantics,sem_emo_sem_emo,1.50287783582462,2,2,2,1,282728.562219689,64,A
10,2,2/8/95,20,f,11,The plans cancelled Ian,Non-sensible,edin_semantics,sem_emo_sem_emo,2.65535502613056,2,1,1,1,282731.961198126,7,A
10,2,2/8/95,20,f,12,The jar labeled Liz,Non-sensible,edin_semantics,sem_emo_sem_emo,0.961243668978568,1,1,1,1,282733.666586379,61,A
10,2,2/8/95,20,f,13,The cheese grated Andy,Non-sensible,edin_semantics,sem_emo_sem_emo,9.54661144694546,1,1,1,1,282743.957589045,65,A
10,2,2/8/95,20,f,14,Jane licked the plate,Sensible,edin_semantics,sem_emo_sem_emo,1.77282897068653,1,2,2,1,282746.474497493,96,A
10,2,2/8/95,20,f,15,The spoon licked Will,Non-sensible,edin_semantics,sem_emo_sem_emo,6.36983221123228,1,1,1,1,282753.589976228,21,A
10,2,2/8/95,20,f,16,The fruits mixed Jack,Non-sensible,edin_semantics,sem_emo_sem_emo,1.01987352018477,2,2,2,1,282755.354175861,8,A
10,2,2/8/95,20,f,17,Sam sucked the candy,Sensible,edin_semantics,sem_emo_sem_emo,1.22065845452016,1,1,1,1,282757.31827267,87,A
10,2,2/8/95,20,f,18,The folder carried Dan,Non-sensible,edin_semantics,sem_emo_sem_emo,0.867270927701611,1,2,2,1,282758.929573042,30,A
10,2,2/8/95,20,f,19,Ryan stroked the blanket,Sensible,edin_semantics,sem_emo_sem_emo,1.07889208610868,2,2,2,1,282760.752594639,116,A
10,2,2/8/95,20,f,20,The tomato sliced Liz,Non-sensible,edin_semantics,sem_emo_sem_emo,0.914541778503917,1,1,1,1,282762.410865666,3,A
10,2,2/8/95,20,f,21,Erin punched the monitor,Sensible,edin_semantics,sem_emo_sem_emo,0.738585193932522,2,1,1,1,282763.892793961,125,A
10,2,2/8/95,20,f,22,Anna polished the trophy,Sensible,edin_semantics,sem_emo_sem_emo,1.0210063092527,1,2,2,1,282765.656967294,104,A
10,2,2/8/95,20,f,23,Eve ironed the trousers,Sensible,edin_semantics,sem_emo_sem_emo,0.948579972609878,2,2,2,1,282767.350566459,130,A
10,2,2/8/95,20,f,24,The dishes washed Mark,Non-sensible,edin_semantics,sem_emo_sem_emo,0.901765508810058,1,1,1,1,282768.997145256,57,A
10,2,2/8/95,20,f,25,The hill climbed Luke,Non-sensible,edin_semantics,sem_emo_sem_emo,1.22018154128455,2,2,2,1,282770.961233085,68,A
10,2,2/8/95,20,f,26,The lever pulled Hugh,Non-sensible,edin_semantics,sem_emo_sem_emo,1.10276372305816,2,1,1,1,282772.807744339,45,A
10,2,2/8/95,20,f,27,Sara jumped the hedge,Sensible,edin_semantics,sem_emo_sem_emo,1.17324552399805,2,2,2,1,282774.724821743,92,A
10,2,2/8/95,20,f,28,The mirror kissed Max,Non-sensible,edin_semantics,sem_emo_sem_emo,0.985777596186381,2,1,1,1,282776.453695163,23,A
10,2,2/8/95,20,f,29,Jay painted the portrait,Sensible,edin_semantics,sem_emo_sem_emo,0.902434213552624,1,2,2,1,282778.100294807,110,A
10,2,2/8/95,20,f,30,Phil cancelled the party,Sensible,edin_semantics,sem_emo_sem_emo,0.891355523839593,1,2,2,1,282779.73506399,82,A
10,2,2/8/95,20,f,31,The juice drank Matt,Non-sensible,edin_semantics,sem_emo_sem_emo,1.12571777513949,2,2,2,1,282781.605092483,60,A
10,2,2/8/95,20,f,32,The movie watched Ella,Non-sensible,edin_semantics,sem_emo_sem_emo,0.808822605002206,2,1,1,1,282783.15756095,33,A
10,2,2/8/95,20,f,33,Liam mixed the nuts,Sensible,edin_semantics,sem_emo_sem_emo,1.26713167037815,1,1,1,1,282785.168723669,83,A
10,2,2/8/95,20,f,34,Leo carried the wallet,Sensible,edin_semantics,sem_emo_sem_emo,0.796929923584685,2,2,2,1,282786.709438647,150,A
10,2,2/8/95,20,f,35,Beth washed the pan,Sensible,edin_semantics,sem_emo_sem_emo,1.11398962402018,1,2,2,1,282788.567829432,132,A
10,2,2/8/95,20,f,36,Ian pushed the button,Sensible,edin_semantics,sem_emo_sem_emo,1.06792885623872,2,1,1,1,282790.378934293,101,A
10,2,2/8/95,20,f,37,The lolly sucked Leah,Non-sensible,edin_semantics,sem_emo_sem_emo,1.34920820227126,2,2,2,1,282792.472407671,12,A
10,2,2/8/95,20,f,38,Jay squeezed the lemon,Sensible,edin_semantics,sem_emo_sem_emo,1.05499350855825,1,2,2,1,282794.271871616,76,A
10,2,2/8/95,20,f,39,The wine stored Leo,Non-sensible,edin_semantics,sem_emo_sem_emo,0.925841124728322,2,2,2,1,282795.941972785,52,A
10,2,2/8/95,20,f,40,The room searched Jen,Non-sensible,edin_semantics,sem_emo_sem_emo,1.39620066655334,2,2,2,1,282798.08250694,10,A
10,2,2/8/95,20,f,41,Jack cleaned the bath,Sensible,edin_semantics,sem_emo_sem_emo,0.808245305903256,1,2,2,1,282799.634918319,80,A
10,2,2/8/95,20,f,42,The jumper wore Joe,Non-sensible,edin_semantics,sem_emo_sem_emo,1.14942391967634,1,1,1,1,282801.528529799,25,A
10,2,2/8/95,20,f,43,The tree hugged Amy,Non-sensible,edin_semantics,sem_emo_sem_emo,3.58298192924121,2,1,1,1,282805.856624571,11,A
10,2,2/8/95,20,f,44,The wall punched Jane,Non-sensible,edin_semantics,sem_emo_sem_emo,3.37312570243375,1,2,2,1,282809.973035964,50,A
10,2,2/8/95,20,f,45,The table wiped Beth,Non-sensible,edin_semantics,sem_emo_sem_emo,2.76119254587684,1,2,2,1,282813.477863147,40,A
10,2,2/8/95,20,f,46,Fred served the dessert,Sensible,edin_semantics,sem_emo_sem_emo,1.03218025329988,2,1,1,1,282815.253793817,145,A
10,2,2/8/95,20,f,47,Tom visited the hospital,Sensible,edin_semantics,sem_emo_sem_emo,0.91383394569857,1,1,1,1,282816.91214695,91,A
10,2,2/8/95,20,f,48,Lucy counted the shoes,Sensible,edin_semantics,sem_emo_sem_emo,0.937955424771644,1,1,1,1,282818.593969534,123,A
10,2,2/8/95,20,f,49,John carried the kettle,Sensible,edin_semantics,sem_emo_sem_emo,0.878865017206408,2,1,1,1,282820.217004151,105,A
10,2,2/8/95,20,f,50,The sheets counted Bill,Non-sensible,edin_semantics,sem_emo_sem_emo,1.1030033021234,1,2,2,1,282822.063546515,48,A
10,2,2/8/95,20,f,51,Emma pulled the rope,Sensible,edin_semantics,sem_emo_sem_emo,0.785352511622477,1,2,2,1,282823.592449634,120,A
10,2,2/8/95,20,f,52,Max searched the internet,Sensible,edin_semantics,sem_emo_sem_emo,0.868159326841123,2,1,1,1,282825.203762515,85,A
10,2,2/8/95,20,f,53,The bowl scrubbed Liz,Non-sensible,edin_semantics,sem_emo_sem_emo,0.891333714826033,2,2,2,1,282826.838563449,56,A
10,2,2/8/95,20,f,54,The garlic crushed Erin,Non-sensible,edin_semantics,sem_emo_sem_emo,0.949512631283142,2,2,2,1,282828.532157482,6,A
10,2,2/8/95,20,f,55,Tim took the ticket,Sensible,edin_semantics,sem_emo_sem_emo,0.9851114571793,2,2,2,1,282830.261045014,128,A
10,2,2/8/95,20,f,56,The garden watered Jeff,Non-sensible,edin_semantics,sem_emo_sem_emo,1.34930987108964,2,2,2,1,282832.354534107,54,A
10,2,2/8/95,20,f,57,The card posted Erin,Non-sensible,edin_semantics,sem_emo_sem_emo,0.974189600383397,1,2,2,1,282834.071649228,36,A
10,2,2/8/95,20,f,58,The fence jumped Jon,Non-sensible,edin_semantics,sem_emo_sem_emo,1.03287397435633,1,1,1,1,282835.847602669,17,A
10,2,2/8/95,20,f,59,Leo passed the salt,Sensible,edin_semantics,sem_emo_sem_emo,1.20993159647333,1,2,1,0,282837.800442147,118,A
10,2,2/8/95,20,f,60,Alex dusted the house,Sensible,edin_semantics,sem_emo_sem_emo,1.26540939480765,2,2,2,1,282839.811099088,122,A
10,2,2/8/95,20,f,61,Amy lifted the crate,Sensible,edin_semantics,sem_emo_sem_emo,0.996922996011563,2,2,2,1,282841.551828306,144,A
10,2,2/8/95,20,f,62,The trolley pushed Matt,Non-sensible,edin_semantics,sem_emo_sem_emo,0.960828655108344,2,2,2,1,282843.257155622,26,A
10,2,2/8/95,20,f,63,Alex wrote the report,Sensible,edin_semantics,sem_emo_sem_emo,0.949405189545359,2,1,1,1,282844.950706999,149,A
10,2,2/8/95,20,f,64,Ian labeled the box,Sensible,edin_semantics,sem_emo_sem_emo,1.13775766786421,1,2,2,1,282846.832548634,136,A
10,2,2/8/95,20,f,65,Lucy cut the ribbon,Sensible,edin_semantics,sem_emo_sem_emo,0.890058204589877,1,1,1,1,282848.467347324,95,A
10,2,2/8/95,20,f,66,Ben got the radio,Sensible,edin_semantics,sem_emo_sem_emo,1.24406696925871,2,2,2,1,282850.454971315,88,A
10,2,2/8/95,20,f,67,The bushes trimmed Jon,Non-sensible,edin_semantics,sem_emo_sem_emo,1.03171071672114,1,2,2,1,282852.230914814,32,A
10,2,2/8/95,20,f,68,Luke fixed the radio,Sensible,edin_semantics,sem_emo_sem_emo,1.04262680048123,1,2,2,1,282854.018621423,112,A
10,2,2/8/95,20,f,69,The pill swallowed Luke,Non-sensible,edin_semantics,sem_emo_sem_emo,1.29037533421069,1,2,2,1,282856.053297212,22,A
10,2,2/8/95,20,f,70,The house built Kate,Non-sensible,edin_semantics,sem_emo_sem_emo,1.21992913336726,1,2,2,1,282858.017475484,46,A
10,2,2/8/95,20,f,71,Luke read the poster,Sensible,edin_semantics,sem_emo_sem_emo,0.901523363951128,2,1,1,1,282859.663968007,79,A
10,2,2/8/95,20,f,72,Phil solved the problem,Sensible,edin_semantics,sem_emo_sem_emo,0.903511517797597,1,1,1,1,282861.310547126,109,A
10,2,2/8/95,20,f,73,The coins polished Jon,Non-sensible,edin_semantics,sem_emo_sem_emo,0.985988951753825,1,1,1,1,282863.039420225,29,A
10,2,2/8/95,20,f,74,Kate hugged the pillow,Sensible,edin_semantics,sem_emo_sem_emo,1.23190391948447,1,2,2,1,282865.015348778,86,A
10,2,2/8/95,20,f,75,The laptop fixed Jen,Non-sensible,edin_semantics,sem_emo_sem_emo,0.98473621282028,2,1,1,1,282866.744187881,37,A
10,2,2/8/95,20,f,76,The toffee chewed Ben,Non-sensible,edin_semantics,sem_emo_sem_emo,0.820831708377227,1,1,1,1,282868.308443191,31,A
10,2,2/8/95,20,f,77,Bill trimmed the hair,Sensible,edin_semantics,sem_emo_sem_emo,1.16070241900161,1,1,1,1,282870.213758448,107,A
10,2,2/8/95,20,f,78,Josh scrubbed the pot,Sensible,edin_semantics,sem_emo_sem_emo,1.06719696929213,2,1,1,1,282872.024950865,131,A
10,2,2/8/95,20,f,79,The potatoes mashed Will,Non-sensible,edin_semantics,sem_emo_sem_emo,1.45556817774195,2,2,2,1,282874.224306022,28,A
10,2,2/8/95,20,f,80,The paper cut Jon,Non-sensible,edin_semantics,sem_emo_sem_emo,2.07892544113565,2,2,2,1,282877.046971938,20,A
10,2,2/8/95,20,f,81,Liz weighed the sugar,Sensible,edin_semantics,sem_emo_sem_emo,0.936435524665285,2,1,1,1,282878.728841989,139,A
10,2,2/8/95,20,f,82,The kettle got Lily,Non-sensible,edin_semantics,sem_emo_sem_emo,0.949130972439889,1,1,1,1,282880.422447568,13,A
10,2,2/8/95,20,f,83,Tom grated the carrots,Sensible,edin_semantics,sem_emo_sem_emo,1.9369948633248,2,2,2,1,282883.104029612,140,A
10,2,2/8/95,20,f,84,The handle pulled Tim,Non-sensible,edin_semantics,sem_emo_sem_emo,0.843231874110643,1,1,1,1,282884.691811783,73,A
10,2,2/8/95,20,f,85,The puzzle solved Joe,Non-sensible,edin_semantics,sem_emo_sem_emo,1.44320371473441,2,2,2,1,282886.879315631,34,A
10,2,2/8/95,20,f,86,The floor cleaned Tim,Non-sensible,edin_semantics,sem_emo_sem_emo,1.36117368750274,2,1,1,1,282888.984567193,5,A
10,2,2/8/95,20,f,87,The scarf knitted Tom,Non-sensible,edin_semantics,sem_emo_sem_emo,1.05521641019732,2,2,2,1,282890.784048137,66,A
10,2,2/8/95,20,f,88,The parcel mailed Rob,Non-sensible,edin_semantics,sem_emo_sem_emo,2.43086458876496,1,2,2,1,282893.95952428,14,A
10,2,2/8/95,20,f,89,Kate wore the dress,Sensible,edin_semantics,sem_emo_sem_emo,1.10282209439902,2,2,2,1,282895.806055097,100,A
10,2,2/8/95,20,f,90,The milk sniffed Phil,Non-sensible,edin_semantics,sem_emo_sem_emo,0.797196764033288,2,2,2,1,282897.346774887,18,A
10,2,2/8/95,20,f,91,Dan brushed the hair,Sensible,edin_semantics,sem_emo_sem_emo,1.70176890847506,1,1,1,1,282899.793108845,147,A
10,2,2/8/95,20,f,92,The room entered Ryan,Non-sensible,edin_semantics,sem_emo_sem_emo,1.38384678738657,2,2,2,1,282901.921847498,58,A
10,2,2/8/95,20,f,93,Max kicked the door,Sensible,edin_semantics,sem_emo_sem_emo,0.997652637888677,2,2,2,1,282903.662510327,114,A
10,2,2/8/95,20,f,94,Fred stored the rice,Sensible,edin_semantics,sem_emo_sem_emo,0.974055217986461,1,1,1,1,282905.37968831,127,A
10,2,2/8/95,20,f,95,Hugh dialed the hotline,Sensible,edin_semantics,sem_emo_sem_emo,1.25421684893081,1,2,2,1,282907.379032434,138,A
10,2,2/8/95,20,f,96,The photo took Beth,Non-sensible,edin_semantics,sem_emo_sem_emo,0.890001436811872,2,1,1,1,282909.013862875,53,A
10,2,2/8/95,20,f,97,The lesson taught Eve,Non-sensible,edin_semantics,sem_emo_sem_emo,0.820439144968987,1,1,1,1,282910.578113053,15,A
10,2,2/8/95,20,f,98,Ben climbed the stairs,Sensible,edin_semantics,sem_emo_sem_emo,0.668044059479143,2,1,1,1,282911.989422278,143,A
10,2,2/8/95,20,f,99,The bucket lent Max,Non-sensible,edin_semantics,sem_emo_sem_emo,0.807870382268447,2,1,1,1,282913.541870218,19,A
10,2,2/8/95,20,f,100,The pen described John,Non-sensible,edin_semantics,sem_emo_sem_emo,2.27941370790359,2,2,2,1,282916.5644997,42,A
10,2,2/8/95,20,f,101,The ball squeezed Josh,Non-sensible,edin_semantics,sem_emo_sem_emo,0.761244502849877,1,1,1,1,282918.069950686,1,A
10,2,2/8/95,20,f,102,The book read Sean,Non-sensible,edin_semantics,sem_emo_sem_emo,0.937935860827565,1,2,2,1,282919.751764611,4,A
10,2,2/8/95,20,f,103,The fur stroked Rob,Non-sensible,edin_semantics,sem_emo_sem_emo,0.774061504169367,1,1,1,1,282921.268969726,41,A
10,2,2/8/95,20,f,104,Eve typed the message,Sensible,edin_semantics,sem_emo_sem_emo,0.856047592533287,2,2,2,1,282922.868523987,124,A
10,2,2/8/95,20,f,105,Joe iced the donut,Sensible,edin_semantics,sem_emo_sem_emo,0.856309622176923,1,1,1,1,282924.468029178,119,A
10,2,2/8/95,20,f,106,Owen swallowed the gum,Sensible,edin_semantics,sem_emo_sem_emo,0.726520605734549,2,1,1,1,282925.938159404,97,A
10,2,2/8/95,20,f,107,The room tidied Sam,Non-sensible,edin_semantics,sem_emo_sem_emo,0.809008623589762,2,2,2,1,282927.490635247,2,A
10,2,2/8/95,20,f,108,Jack drank the beer,Sensible,edin_semantics,sem_emo_sem_emo,1.3492264833767,1,1,1,1,282929.58414198,135,A
10,2,2/8/95,20,f,109,The museum visited Mary,Non-sensible,edin_semantics,sem_emo_sem_emo,1.12560295680305,1,2,2,1,282931.454176887,16,A
10,2,2/8/95,20,f,110,The box lifted Kate,Non-sensible,edin_semantics,sem_emo_sem_emo,0.891590612882283,2,1,1,1,282933.088954409,69,A
10,2,2/8/95,20,f,111,The teeth brushed Carl,Non-sensible,edin_semantics,sem_emo_sem_emo,1.56180371320806,2,2,2,1,282935.394159594,72,A
10,2,2/8/95,20,f,112,The shirt ironed Josh,Non-sensible,edin_semantics,sem_emo_sem_emo,0.819937215535901,2,1,1,1,282936.958381228,55,A
10,2,2/8/95,20,f,113,Josh taught the rules,Sensible,edin_semantics,sem_emo_sem_emo,1.0670061398996,2,2,2,1,282938.769635224,90,A
10,2,2/8/95,20,f,114,Ian filed the report,Sensible,edin_semantics,sem_emo_sem_emo,1.06756772357039,2,1,1,1,282940.580795249,99,A
10,2,2/8/95,20,f,115,The bike kicked Matt,Non-sensible,edin_semantics,sem_emo_sem_emo,0.80915615556296,2,1,1,1,282942.133291618,39,A
10,2,2/8/95,20,f,116,Jay sold the bed,Sensible,edin_semantics,sem_emo_sem_emo,0.867345655919053,1,1,1,1,282943.744567616,113,A
10,2,2/8/95,20,f,117,The lorry dented Lily,Non-sensible,edin_semantics,sem_emo_sem_emo,0.79776861082064,1,1,1,1,282945.285306007,71,A
10,2,2/8/95,20,f,118,The letter typed Phil,Non-sensible,edin_semantics,sem_emo_sem_emo,0.878282265912276,1,1,1,1,282946.908341587,49,A
10,2,2/8/95,20,f,119,The number dialed Tom,Non-sensible,edin_semantics,sem_emo_sem_emo,0.761432766506914,1,1,1,1,282948.413768198,63,A
10,2,2/8/95,20,f,120,The bill paid Mike,Non-sensible,edin_semantics,sem_emo_sem_emo,0.67942903842777,2,1,1,1,282949.836874208,59,A
10,2,2/8/95,20,f,121,The eggs whisked Dan,Non-sensible,edin_semantics,sem_emo_sem_emo,1.067987869028,2,2,2,1,282951.648087152,62,A
10,2,2/8/95,20,f,122,Mike ate the steak,Sensible,edin_semantics,sem_emo_sem_emo,1.19634646666236,1,2,2,1,282953.588761655,142,A
10,2,2/8/95,20,f,123,Liam sliced the onion,Sensible,edin_semantics,sem_emo_sem_emo,0.856238742650021,2,2,2,1,282955.188199494,78,A
10,2,2/8/95,20,f,124,The dish served Kate,Non-sensible,edin_semantics,sem_emo_sem_emo,7.57072747376515,1,2,2,1,282963.503345127,70,A
10,2,2/8/95,20,f,125,The papers filed Lara,Non-sensible,edin_semantics,sem_emo_sem_emo,1.78553660592297,2,2,2,1,282966.031996159,24,A
10,2,2/8/95,20,f,126,Ella mashed the turnip,Sensible,edin_semantics,sem_emo_sem_emo,4.26643859077012,2,1,1,1,282971.042256367,103,A
10,2,2/8/95,20,f,127,Erin described the church,Sensible,edin_semantics,sem_emo_sem_emo,0.843261059722863,2,1,1,1,282972.630016408,117,A
10,2,2/8/95,20,f,128,The towels passed Phil,Non-sensible,edin_semantics,sem_emo_sem_emo,1.04246643965598,1,1,1,1,282974.417727507,43,A
10,2,2/8/95,20,f,129,Tom whisked the cream,Sensible,edin_semantics,sem_emo_sem_emo,1.13683912088163,2,1,1,1,282976.29951013,137,A
10,2,2/8/95,20,f,130,The thread measured Amy,Non-sensible,edin_semantics,sem_emo_sem_emo,1.40912029886385,1,1,1,1,282978.451795208,51,A
10,2,2/8/95,20,f,131,The gun carried Ryan,Non-sensible,edin_semantics,sem_emo_sem_emo,1.11426384106744,2,1,1,1,282980.310072778,75,A
10,2,2/8/95,20,f,132,Ryan knitted the socks,Sensible,edin_semantics,sem_emo_sem_emo,1.13731667550746,2,1,1,1,282982.191814669,141,A
10,2,2/8/95,20,f,133,Adam watched the opera,Sensible,edin_semantics,sem_emo_sem_emo,1.97376817208715,1,2,2,1,282984.908704002,108,A
10,2,2/8/95,20,f,134,The story wrote Ewan,Non-sensible,edin_semantics,sem_emo_sem_emo,0.833015284268186,1,2,2,1,282986.484658919,74,A
10,2,2/8/95,20,f,135,Ian mailed the invite,Sensible,edin_semantics,sem_emo_sem_emo,0.867266116896644,1,1,1,1,282988.095933313,89,A
10,2,2/8/95,20,f,136,Tom offered the sweets,Sensible,edin_semantics,sem_emo_sem_emo,1.03207313222811,1,2,2,1,282989.87191594,84,A
10,2,2/8/95,20,f,137,The picture painted Ryan,Non-sensible,edin_semantics,sem_emo_sem_emo,0.902371993521228,1,1,1,1,282991.518466193,35,A
10,2,2/8/95,20,f,138,The money offered Matt,Non-sensible,edin_semantics,sem_emo_sem_emo,1.11469264596235,1,1,1,1,282993.376716182,9,A
10,2,2/8/95,20,f,139,Andy pulled the rope,Sensible,edin_semantics,sem_emo_sem_emo,1.07868714496726,2,2,2,1,282995.199699933,148,A
10,2,2/8/95,20,f,140,The shelf dusted Jake,Non-sensible,edin_semantics,sem_emo_sem_emo,1.26709959818982,2,1,1,1,282997.210862652,47,A
10,2,2/8/95,20,f,141,The sofa sold Carl,Non-sensible,edin_semantics,sem_emo_sem_emo,1.29027526901336,2,2,2,1,282999.245540044,38,A
10,2,2/8/95,20,f,142,Lucy wiped the desk,Sensible,edin_semantics,sem_emo_sem_emo,1.2321601761505,1,1,1,1,283001.221437488,115,A
10,2,2/8/95,20,f,143,Fred lent the car,Sensible,edin_semantics,sem_emo_sem_emo,4.68869917845586,1,2,2,1,283006.655106467,94,A
10,2,2/8/95,20,f,144,Joe entered the office,Sensible,edin_semantics,sem_emo_sem_emo,0.844596865703352,2,1,1,1,283008.242843416,133,A
10,2,2/8/95,20,f,145,Hugh kissed the rose,Sensible,edin_semantics,sem_emo_sem_emo,1.20810123771662,2,2,2,1,283010.195202132,98,A
10,2,2/8/95,20,f,146,Jack posted the gift,Sensible,edin_semantics,sem_emo_sem_emo,1.23202162433881,1,1,1,1,283012.171097009,111,A
10,2,2/8/95,20,f,147,Luke watered the plants,Sensible,edin_semantics,sem_emo_sem_emo,1.03152437740937,2,1,1,1,283013.947014851,129,A
10,2,2/8/95,20,f,148,Ian dented the bowl,Sensible,edin_semantics,sem_emo_sem_emo,1.020152548037,2,2,2,1,283015.711169903,146,A
10,2,2/8/95,20,f,149,The cake iced Mary,Non-sensible,edin_semantics,sem_emo_sem_emo,1.21971072186716,2,2,2,1,283017.675322838,44,A
10,2,2/8/95,20,f,150,The herbs chopped Phil,Non-sensible,edin_semantics,sem_emo_sem_emo,0.879709798202384,1,1,1,1,283019.298330836,27,A
10,2,2/8/95,20,f,151,Liz scrubbed the bowl,Sensible,edin_semantics,sem_emo_sem_emo,2.48317397740902,1,2,2,1,283060.321323695,56,B
10,2,2/8/95,20,f,152,Tim cleaned the floor,Sensible,edin_semantics,sem_emo_sem_emo,0.888330797490198,2,1,1,1,283061.956121743,5,B
10,2,2/8/95,20,f,153,The carrots chopped Fred,Non-sensible,edin_semantics,sem_emo_sem_emo,1.00819828809472,1,2,2,1,283063.708541909,102,B
10,2,2/8/95,20,f,154,The nuts mixed Liam,Non-sensible,edin_semantics,sem_emo_sem_emo,1.06698112364393,1,1,1,1,283065.51973561,83,B
10,2,2/8/95,20,f,155,Lara filed the papers,Sensible,edin_semantics,sem_emo_sem_emo,1.59614242351381,1,2,2,1,283067.860202863,24,B
10,2,2/8/95,20,f,156,The bowl dented Ian,Non-sensible,edin_semantics,sem_emo_sem_emo,2.25406161963474,1,2,2,1,283070.859326651,146,B
10,2,2/8/95,20,f,157,The church described Erin,Non-sensible,edin_semantics,sem_emo_sem_emo,1.37260549177881,1,1,1,1,283072.976322079,117,B
10,2,2/8/95,20,f,158,The hedge jumped Sara,Non-sensible,edin_semantics,sem_emo_sem_emo,0.866730190929957,2,2,2,1,283074.587658052,92,B
10,2,2/8/95,20,f,159,The car lent Fred,Non-sensible,edin_semantics,sem_emo_sem_emo,1.18489862629212,2,2,2,1,283076.516440515,94,B
10,2,2/8/95,20,f,160,Jon trimmed the bushes,Sensible,edin_semantics,sem_emo_sem_emo,1.35995013418142,1,2,2,1,283078.621690793,32,B
10,2,2/8/95,20,f,161,Phil typed the letter,Sensible,edin_semantics,sem_emo_sem_emo,0.949418018397409,1,1,1,1,283080.315289637,49,B
10,2,2/8/95,20,f,162,Erin crushed the garlic,Sensible,edin_semantics,sem_emo_sem_emo,1.03158403164707,2,2,2,1,283082.091245965,6,B
10,2,2/8/95,20,f,163,The portrait painted Jay,Non-sensible,edin_semantics,sem_emo_sem_emo,1.60740777326282,2,2,2,1,283084.443463179,110,B
10,2,2/8/95,20,f,164,Jen fixed the laptop,Sensible,edin_semantics,sem_emo_sem_emo,1.11377730622189,2,1,1,1,283086.301738504,37,B
10,2,2/8/95,20,f,165,The hotline dialed Hugh,Non-sensible,edin_semantics,sem_emo_sem_emo,0.937338997726329,2,2,2,1,283087.983564296,138,B
10,2,2/8/95,20,f,166,Will mashed the potatoes,Sensible,edin_semantics,sem_emo_sem_emo,1.2189656853443,1,2,2,1,283089.947692856,28,B
10,2,2/8/95,20,f,167,Dan whisked the eggs,Sensible,edin_semantics,sem_emo_sem_emo,1.10250618349528,1,2,2,1,283091.794198658,62,B
10,2,2/8/95,20,f,168,Jake dusted the shelf,Sensible,edin_semantics,sem_emo_sem_emo,1.26685392536456,1,1,1,1,283093.805352075,47,B
10,2,2/8/95,20,f,169,Matt kicked the bike,Sensible,edin_semantics,sem_emo_sem_emo,0.996842815540731,2,1,1,1,283095.546029978,39,B
10,2,2/8/95,20,f,170,Ryan carried the gun,Sensible,edin_semantics,sem_emo_sem_emo,0.67911986267427,2,1,1,1,283096.969073448,75,B
10,2,2/8/95,20,f,171,Bill counted the sheets,Sensible,edin_semantics,sem_emo_sem_emo,1.32565311767394,2,2,2,1,283099.039078656,48,B
10,2,2/8/95,20,f,172,The internet searched Max,Non-sensible,edin_semantics,sem_emo_sem_emo,0.867444758943748,1,1,1,1,283100.65037935,85,B
10,2,2/8/95,20,f,173,Mark washed the dishes,Sensible,edin_semantics,sem_emo_sem_emo,0.985099590499885,2,1,1,1,283102.379249883,57,B
10,2,2/8/95,20,f,174,The debt paid Zoe,Non-sensible,edin_semantics,sem_emo_sem_emo,1.12548493122449,1,2,2,1,283104.249262982,134,B
10,2,2/8/95,20,f,175,Josh ironed the shirt,Sensible,edin_semantics,sem_emo_sem_emo,1.20803132036235,2,1,1,1,283106.201653449,55,B
10,2,2/8/95,20,f,176,Eve taught the lesson,Sensible,edin_semantics,sem_emo_sem_emo,1.33792232634733,1,1,1,1,283108.28335634,15,B
10,2,2/8/95,20,f,177,The pan washed Beth,Non-sensible,edin_semantics,sem_emo_sem_emo,1.16092499991646,2,2,2,1,283110.188678332,132,B
10,2,2/8/95,20,f,178,The message typed Eve,Non-sensible,edin_semantics,sem_emo_sem_emo,1.27937233482953,1,2,2,1,283112.211582351,124,B
10,2,2/8/95,20,f,179,The party cancelled Phil,Non-sensible,edin_semantics,sem_emo_sem_emo,1.07894885388669,2,2,2,1,283114.034589515,82,B
10,2,2/8/95,20,f,180,The onion sliced Liam,Non-sensible,edin_semantics,sem_emo_sem_emo,1.20833247806877,2,2,2,1,283115.986922893,78,B
10,2,2/8/95,20,f,181,The hair trimmed Bill,Non-sensible,edin_semantics,sem_emo_sem_emo,2.6434726077714,1,1,1,1,283119.374157785,107,B
10,2,2/8/95,20,f,182,The problem solved Phil,Non-sensible,edin_semantics,sem_emo_sem_emo,1.02054896013578,1,1,1,1,283121.138422524,109,B
10,2,2/8/95,20,f,183,The trophy polished Anna,Non-sensible,edin_semantics,sem_emo_sem_emo,0.99676327657653,2,2,2,1,283122.878998758,104,B
10,2,2/8/95,20,f,184,The shoes counted Lucy,Non-sensible,edin_semantics,sem_emo_sem_emo,0.785431409196462,1,1,1,1,283124.407900274,123,B
10,2,2/8/95,20,f,185,The invite mailed Ian,Non-sensible,edin_semantics,sem_emo_sem_emo,2.39660188945709,1,1,1,1,283127.548209924,89,B
10,2,2/8/95,20,f,186,The perfume sniffed Tim,Non-sensible,edin_semantics,sem_emo_sem_emo,1.44266778876772,1,1,1,1,283129.735785614,93,B
10,2,2/8/95,20,f,187,Ewan wrote the story,Sensible,edin_semantics,sem_emo_sem_emo,1.19680766452802,1,2,2,1,283131.67632766,74,B
10,2,2/8/95,20,f,188,Andy grated the cheese,Sensible,edin_semantics,sem_emo_sem_emo,1.37303718319163,2,1,1,1,283133.793333671,65,B
10,2,2/8/95,20,f,189,Hugh pulled the lever,Sensible,edin_semantics,sem_emo_sem_emo,2.80819944269024,2,1,1,1,283137.345220669,45,B
10,2,2/8/95,20,f,190,The rose kissed Hugh,Non-sensible,edin_semantics,sem_emo_sem_emo,3.11392387602245,2,2,2,1,283141.202872512,98,B
10,2,2/8/95,20,f,191,Max lent the bucket,Sensible,edin_semantics,sem_emo_sem_emo,0.879305047390517,2,1,1,1,283142.825910336,19,B
10,2,2/8/95,20,f,192,Will licked the spoon,Sensible,edin_semantics,sem_emo_sem_emo,1.46759043069324,2,1,1,1,283145.037014492,21,B
10,2,2/8/95,20,f,193,Jen weighed the flour,Sensible,edin_semantics,sem_emo_sem_emo,1.62004324607551,1,2,2,1,283147.401012454,64,B
10,2,2/8/95,20,f,194,Lily dented the lorry,Sensible,edin_semantics,sem_emo_sem_emo,0.879101068363525,1,1,1,1,283149.024051562,71,B
10,2,2/8/95,20,f,195,The hospital visited Tom,Non-sensible,edin_semantics,sem_emo_sem_emo,1.31434254621854,1,1,1,1,283151.082266078,91,B
10,2,2/8/95,20,f,196,John described the pen,Sensible,edin_semantics,sem_emo_sem_emo,0.90248713264009,2,2,2,1,283152.728861874,42,B
10,2,2/8/95,20,f,197,The curtains measured Rob,Non-sensible,edin_semantics,sem_emo_sem_emo,0.832364540023264,2,2,2,1,283154.304822243,126,B
10,2,2/8/95,20,f,198,Tom knitted the scarf,Sensible,edin_semantics,sem_emo_sem_emo,1.07887637079693,1,2,2,1,283156.127841594,66,B
10,2,2/8/95,20,f,199,Lily got the kettle,Sensible,edin_semantics,sem_emo_sem_emo,0.854341994505376,1,1,1,1,283157.72730477,13,B
10,2,2/8/95,20,f,200,The steak ate Mike,Non-sensible,edin_semantics,sem_emo_sem_emo,0.938327141222544,2,2,2,1,283159.409161351,142,B
10,2,2/8/95,20,f,201,The sweets offered Tom,Non-sensible,edin_semantics,sem_emo_sem_emo,0.914409961842466,2,2,2,1,283161.067493316,84,B
10,2,2/8/95,20,f,202,Josh squeezed the ball,Sensible,edin_semantics,sem_emo_sem_emo,0.820414770161733,2,1,1,1,283162.631715592,1,B
10,2,2/8/95,20,f,203,The radio got Ben,Non-sensible,edin_semantics,sem_emo_sem_emo,1.24424144183286,1,2,2,1,283164.619391219,88,B
10,2,2/8/95,20,f,204,Ben chewed the toffee,Sensible,edin_semantics,sem_emo_sem_emo,2.57339010538999,1,1,1,1,283167.9360157,31,B
10,2,2/8/95,20,f,205,The fat chewed Adam,Non-sensible,edin_semantics,sem_emo_sem_emo,4.23114861984504,2,2,2,1,283172.910993634,106,B
10,2,2/8/95,20,f,206,The rope pulled Andy,Non-sensible,edin_semantics,sem_emo_sem_emo,1.07931704242947,1,2,2,1,283174.733987328,148,B
10,2,2/8/95,20,f,207,Ryan entered the room,Sensible,edin_semantics,sem_emo_sem_emo,1.04423970996868,1,2,2,1,283176.521720236,58,B
10,2,2/8/95,20,f,208,Rob mailed the parcel,Sensible,edin_semantics,sem_emo_sem_emo,0.879450655018445,2,2,2,1,283178.144754532,14,B
10,2,2/8/95,20,f,209,The rules taught Josh,Non-sensible,edin_semantics,sem_emo_sem_emo,1.22073414479382,2,2,2,1,283180.108835306,90,B
10,2,2/8/95,20,f,210,Amy hugged the tree,Sensible,edin_semantics,sem_emo_sem_emo,2.00835768680554,1,1,1,1,283182.860934429,11,B
10,2,2/8/95,20,f,211,The turnip mashed Ella,Non-sensible,edin_semantics,sem_emo_sem_emo,0.761621992278378,1,1,1,1,283184.366403055,103,B
10,2,2/8/95,20,f,212,The box labeled Ian,Non-sensible,edin_semantics,sem_emo_sem_emo,1.1378513185773,2,2,2,1,283186.248159378,136,B
10,2,2/8/95,20,f,213,The rice stored Fred,Non-sensible,edin_semantics,sem_emo_sem_emo,0.761976389738265,1,1,1,1,283187.75359497,127,B
10,2,2/8/95,20,f,214,Jen searched the room,Sensible,edin_semantics,sem_emo_sem_emo,4.93712700065225,1,2,2,1,283193.434311706,10,B
10,2,2/8/95,20,f,215,The garage tidied Erin,Non-sensible,edin_semantics,sem_emo_sem_emo,0.891302925476339,1,1,1,1,283195.069048175,77,B
10,2,2/8/95,20,f,216,The blanket stroked Ryan,Non-sensible,edin_semantics,sem_emo_sem_emo,0.761648932879325,1,2,2,1,283196.574493709,116,B
10,2,2/8/95,20,f,217,Jon polished the coins,Sensible,edin_semantics,sem_emo_sem_emo,1.31468026613584,2,1,1,1,283198.632695396,29,B
10,2,2/8/95,20,f,218,The dessert served Fred,Non-sensible,edin_semantics,sem_emo_sem_emo,0.808590402477421,1,1,1,1,283200.185178937,145,B
10,2,2/8/95,20,f,219,The ice crushed Josh,Non-sensible,edin_semantics,sem_emo_sem_emo,0.996890603099018,1,1,1,1,283201.925850746,81,B
10,2,2/8/95,20,f,220,Ryan painted the picture,Sensible,edin_semantics,sem_emo_sem_emo,0.97340960521251,2,1,1,1,283203.642954001,35,B
10,2,2/8/95,20,f,221,Luke swallowed the pill,Sensible,edin_semantics,sem_emo_sem_emo,1.03236947907135,1,2,2,1,283205.418917064,22,B
10,2,2/8/95,20,f,222,The pot scrubbed Josh,Non-sensible,edin_semantics,sem_emo_sem_emo,0.797027743712533,2,1,1,1,283206.959581689,131,B
10,2,2/8/95,20,f,223,The shed built Rose,Non-sensible,edin_semantics,sem_emo_sem_emo,0.855941433634143,1,1,1,1,283208.559114141,121,B
10,2,2/8/95,20,f,224,The bath cleaned Jack,Non-sensible,edin_semantics,sem_emo_sem_emo,1.07945046265377,1,2,2,1,283210.382102703,80,B
10,2,2/8/95,20,f,225,Amy measured the thread,Sensible,edin_semantics,sem_emo_sem_emo,0.773699730052613,1,1,1,1,283211.899279595,51,B
10,2,2/8/95,20,f,226,The plants watered Luke,Non-sensible,edin_semantics,sem_emo_sem_emo,0.644032587879337,2,1,1,1,283213.287099803,129,B
10,2,2/8/95,20,f,227,The candy sucked Sam,Non-sensible,edin_semantics,sem_emo_sem_emo,0.714639149606228,2,1,1,1,283214.745490011,87,B
10,2,2/8/95,20,f,228,Ella watched the movie,Sensible,edin_semantics,sem_emo_sem_emo,0.750322646053974,1,1,1,1,283216.239213809,33,B
10,2,2/8/95,20,f,229,The plate licked Jane,Non-sensible,edin_semantics,sem_emo_sem_emo,0.773444435559213,1,2,2,1,283217.75637691,96,B
10,2,2/8/95,20,f,230,Max kissed the mirror,Sensible,edin_semantics,sem_emo_sem_emo,0.938046189025044,1,1,1,1,283219.438196928,23,B
10,2,2/8/95,20,f,231,Jon cut the paper,Sensible,edin_semantics,sem_emo_sem_emo,0.913798024819698,1,2,2,1,283221.09650516,20,B
10,2,2/8/95,20,f,232,The ribbon cut Lucy,Non-sensible,edin_semantics,sem_emo_sem_emo,0.854774327366613,1,1,1,1,283222.696025104,95,B
10,2,2/8/95,20,f,233,Phil sniffed the milk,Sensible,edin_semantics,sem_emo_sem_emo,1.25504655594705,1,2,2,1,283224.695437541,18,B
10,2,2/8/95,20,f,234,Tom dialed the number,Sensible,edin_semantics,sem_emo_sem_emo,0.985249046818353,2,1,1,1,283226.424360353,63,B
10,2,2/8/95,20,f,235,The wallet carried Leo,Non-sensible,edin_semantics,sem_emo_sem_emo,1.60863613738911,2,2,2,1,283228.776565699,150,B
10,2,2/8/95,20,f,236,Tim ate the ham,Sensible,edin_semantics,sem_emo_sem_emo,1.06751897389768,1,1,1,1,283230.587783133,67,B
10,2,2/8/95,20,f,237,The gum swallowed Owen,Non-sensible,edin_semantics,sem_emo_sem_emo,0.773557650391012,1,1,1,1,283232.104977986,97,B
10,2,2/8/95,20,f,238,The monitor punched Erin,Non-sensible,edin_semantics,sem_emo_sem_emo,0.726125155866612,1,1,1,1,283233.575139001,125,B
10,2,2/8/95,20,f,239,Luke climbed the hill,Sensible,edin_semantics,sem_emo_sem_emo,1.45584303623764,2,2,2,1,283235.774491913,68,B
10,2,2/8/95,20,f,240,The office entered Joe,Non-sensible,edin_semantics,sem_emo_sem_emo,0.985029352479614,2,1,1,1,283237.503370785,133,B
10,2,2/8/95,20,f,241,The poster read Luke,Non-sensible,edin_semantics,sem_emo_sem_emo,1.17366663162829,1,1,1,1,283239.420438247,79,B
10,2,2/8/95,20,f,242,Carl sold the sofa,Sensible,edin_semantics,sem_emo_sem_emo,1.43253907671897,1,2,2,1,283241.596242489,38,B
10,2,2/8/95,20,f,243,Sean read the book,Sensible,edin_semantics,sem_emo_sem_emo,0.961881905153859,1,2,2,1,283243.301617592,4,B
10,2,2/8/95,20,f,244,The radio fixed Luke,Non-sensible,edin_semantics,sem_emo_sem_emo,0.879206585814245,1,2,2,1,283244.924653172,112,B
10,2,2/8/95,20,f,245,Phil chopped the herbs,Sensible,edin_semantics,sem_emo_sem_emo,0.844005454855505,1,1,1,1,283246.512403591,27,B
10,2,2/8/95,20,f,246,The crate lifted Amy,Non-sensible,edin_semantics,sem_emo_sem_emo,0.961572088010143,1,2,2,1,283248.217801466,144,B
10,2,2/8/95,20,f,247,Matt pushed the trolley,Sensible,edin_semantics,sem_emo_sem_emo,1.0322431147215,1,2,2,1,283249.993708402,26,B
10,2,2/8/95,20,f,248,Dan carried the folder,Sensible,edin_semantics,sem_emo_sem_emo,0.820561981410719,2,2,2,1,283251.557965637,30,B
10,2,2/8/95,20,f,249,The house dusted Alex,Non-sensible,edin_semantics,sem_emo_sem_emo,1.00899271573871,2,2,2,1,283253.310387727,122,B
10,2,2/8/95,20,f,250,Ian cancelled the plans,Sensible,edin_semantics,sem_emo_sem_emo,1.04354117810726,1,1,1,1,283255.098043662,7,B
10,2,2/8/95,20,f,251,Jeff watered the garden,Sensible,edin_semantics,sem_emo_sem_emo,0.902758463169448,1,2,2,1,283256.744629836,54,B
10,2,2/8/95,20,f,252,The report wrote Alex,Non-sensible,edin_semantics,sem_emo_sem_emo,0.726393920660485,1,1,1,1,283258.214770966,149,B
10,2,2/8/95,20,f,253,Joe solved the puzzle,Sensible,edin_semantics,sem_emo_sem_emo,1.0087053491734,2,2,2,1,283259.967183756,34,B
10,2,2/8/95,20,f,254,The door kicked Max,Non-sensible,edin_semantics,sem_emo_sem_emo,1.00850104942219,2,2,2,1,283261.719612581,114,B
10,2,2/8/95,20,f,255,The button pushed Ian,Non-sensible,edin_semantics,sem_emo_sem_emo,1.52654677658575,1,1,1,1,283263.989514645,101,B
10,2,2/8/95,20,f,256,The gift posted Jack,Non-sensible,edin_semantics,sem_emo_sem_emo,0.632325283600949,2,1,1,1,283265.365583932,111,B
10,2,2/8/95,20,f,257,Matt offered the money,Sensible,edin_semantics,sem_emo_sem_emo,1.11469040089287,2,1,1,1,283267.223819488,9,B
10,2,2/8/95,20,f,258,Jack mixed the fruits,Sensible,edin_semantics,sem_emo_sem_emo,1.42043568118243,1,2,2,1,283269.38789205,8,B
10,2,2/8/95,20,f,259,Liz labeled the jar,Sensible,edin_semantics,sem_emo_sem_emo,0.785025054763537,2,1,1,1,283270.916894914,61,B
10,2,2/8/95,20,f,260,Jane punched the wall,Sensible,edin_semantics,sem_emo_sem_emo,0.914735173690133,1,2,2,1,283272.575155678,50,B
10,2,2/8/95,20,f,261,The carrots grated Tom,Non-sensible,edin_semantics,sem_emo_sem_emo,0.86754482408287,2,2,2,1,283274.186462145,140,B
10,2,2/8/95,20,f,262,The cream whisked Tom,Non-sensible,edin_semantics,sem_emo_sem_emo,0.820518363208976,2,1,1,1,283275.750711361,137,B
10,2,2/8/95,20,f,263,Leah sucked the lolly,Sensible,edin_semantics,sem_emo_sem_emo,1.10301388596417,2,2,2,1,283277.597183165,12,B
10,2,2/8/95,20,f,264,The ticket took Tim,Non-sensible,edin_semantics,sem_emo_sem_emo,0.820609127520584,1,2,2,1,283279.161419873,128,B
10,2,2/8/95,20,f,265,The opera watched Adam,Non-sensible,edin_semantics,sem_emo_sem_emo,0.796770524932072,2,2,2,1,283280.702117854,108,B
10,2,2/8/95,20,f,266,Rob stroked the fur,Sensible,edin_semantics,sem_emo_sem_emo,0.961730845214333,2,1,1,1,283282.407501616,41,B
10,2,2/8/95,20,f,267,The kettle carried John,Non-sensible,edin_semantics,sem_emo_sem_emo,0.879475029883906,1,1,1,1,283284.030559647,105,B
10,2,2/8/95,20,f,268,The report filed Ian,Non-sensible,edin_semantics,sem_emo_sem_emo,2.30201913556084,1,1,1,1,283287.076694501,99,B
10,2,2/8/95,20,f,269,Sam tidied the room,Sensible,edin_semantics,sem_emo_sem_emo,1.58491556037916,2,2,2,1,283289.405417888,2,B
10,2,2/8/95,20,f,270,The beer drank Jack,Non-sensible,edin_semantics,sem_emo_sem_emo,0.785424673988018,2,1,1,1,283290.934352758,135,B
10,2,2/8/95,20,f,271,The sugar weighed Liz,Non-sensible,edin_semantics,sem_emo_sem_emo,0.714319069345947,2,1,1,1,283292.392740079,139,B
10,2,2/8/95,20,f,272,Mary visited the museum,Sensible,edin_semantics,sem_emo_sem_emo,1.44398499280214,1,2,2,1,283294.58036035,16,B
10,2,2/8/95,20,f,273,Erin posted the card,Sensible,edin_semantics,sem_emo_sem_emo,1.09120812016772,1,2,2,1,283296.415059744,36,B
10,2,2/8/95,20,f,274,Kate lifted the box,Sensible,edin_semantics,sem_emo_sem_emo,0.997265526792035,2,1,1,1,283298.155744062,69,B
10,2,2/8/95,20,f,275,The salt passed Leo,Non-sensible,edin_semantics,sem_emo_sem_emo,1.86692518973723,2,2,2,1,283300.76670479,118,B
10,2,2/8/95,20,f,276,The dress wore Kate,Non-sensible,edin_semantics,sem_emo_sem_emo,1.52607114636339,1,2,2,1,283303.036592101,100,B
10,2,2/8/95,20,f,277,The bed sold Jay,Non-sensible,edin_semantics,sem_emo_sem_emo,0.832377048151102,1,1,2,0,283304.612568185,113,B
10,2,2/8/95,20,f,278,Joe wore the jumper,Sensible,edin_semantics,sem_emo_sem_emo,1.06768318341346,2,1,1,1,283306.423855537,25,B
10,2,2/8/95,20,f,279,Liz sliced the tomato,Sensible,edin_semantics,sem_emo_sem_emo,1.17390781431459,1,1,1,1,283308.341162257,3,B
10,2,2/8/95,20,f,280,Mike paid the bill,Sensible,edin_semantics,sem_emo_sem_emo,0.985483494354412,2,1,1,1,283310.069776213,59,B
10,2,2/8/95,20,f,281,The rope pulled Emma,Non-sensible,edin_semantics,sem_emo_sem_emo,1.02001848636428,1,2,2,1,283311.833947302,120,B
10,2,2/8/95,20,f,282,The socks knitted Ryan,Non-sensible,edin_semantics,sem_emo_sem_emo,0.91454434429761,1,1,1,1,283313.492283115,141,B
10,2,2/8/95,20,f,283,The donut iced Joe,Non-sensible,edin_semantics,sem_emo_sem_emo,0.832330543431453,2,1,1,1,283315.068288706,119,B
10,2,2/8/95,20,f,284,The trousers ironed Eve,Non-sensible,edin_semantics,sem_emo_sem_emo,1.0082970703952,2,2,2,1,283316.820713362,130,B
10,2,2/8/95,20,f,285,Kate served the dish,Sensible,edin_semantics,sem_emo_sem_emo,1.2082651265082,1,2,2,1,283318.77306406,70,B
10,2,2/8/95,20,f,286,Beth wiped the table,Sensible,edin_semantics,sem_emo_sem_emo,1.14979435323039,1,2,2,1,283320.666635129,40,B
10,2,2/8/95,20,f,287,Leo stored the wine,Sensible,edin_semantics,sem_emo_sem_emo,1.7141785932472,2,2,2,1,283323.124683448,52,B
10,2,2/8/95,20,f,288,Jon jumped the fence,Sensible,edin_semantics,sem_emo_sem_emo,1.63202989893034,1,1,1,1,283325.500435219,17,B
10,2,2/8/95,20,f,289,Matt drank the juice,Sensible,edin_semantics,sem_emo_sem_emo,4.24299607949797,1,2,2,1,283330.487160869,60,B
10,2,2/8/95,20,f,290,Tim pulled the handle,Sensible,edin_semantics,sem_emo_sem_emo,0.796983163396362,1,1,1,1,283332.027920107,73,B
10,2,2/8/95,20,f,291,Carl brushed the teeth,Sensible,edin_semantics,sem_emo_sem_emo,1.09099355735816,2,2,2,1,283333.862628481,72,B
10,2,2/8/95,20,f,292,The hair brushed Dan,Non-sensible,edin_semantics,sem_emo_sem_emo,0.72635799983982,2,1,1,1,283335.332771215,147,B
10,2,2/8/95,20,f,293,Kate built the house,Sensible,edin_semantics,sem_emo_sem_emo,1.06746028183261,1,2,2,1,283337.144000195,46,B
10,2,2/8/95,20,f,294,Phil passed the towels,Sensible,edin_semantics,sem_emo_sem_emo,0.725808924238663,1,1,1,1,283338.614150626,43,B
10,2,2/8/95,20,f,295,The stairs climbed Ben,Non-sensible,edin_semantics,sem_emo_sem_emo,0.656014750653412,2,1,1,1,283340.013735869,143,B
10,2,2/8/95,20,f,296,The pillow hugged Kate,Non-sensible,edin_semantics,sem_emo_sem_emo,1.26753000670578,2,2,2,1,283342.02489955,86,B
10,2,2/8/95,20,f,297,The lemon squeezed Jay,Non-sensible,edin_semantics,sem_emo_sem_emo,0.820247674069833,2,2,2,1,283343.589099375,76,B
10,2,2/8/95,20,f,298,Beth took the photo,Sensible,edin_semantics,sem_emo_sem_emo,1.00838719320018,2,1,1,1,283345.341555782,53,B
10,2,2/8/95,20,f,299,Mary iced the cake,Sensible,edin_semantics,sem_emo_sem_emo,1.40837237582309,2,2,2,1,283347.49384054,44,B
10,2,2/8/95,20,f,300,The desk wiped Lucy,Non-sensible,edin_semantics,sem_emo_sem_emo,0.808693033410236,1,1,1,1,283349.046300347,115,B
