subject_column,AssignedList_column,subject_dob_column,subject_age_column,subject_gender_column,trialnum_column,Stim_column,Type_column,Experiment_column,OrderGroup_column,ReactionTime_column,StimSide_column,StimPosition_column,Response_column,Valid_column,TrialEndSecs_column,PairID_column,List_column
12,4,2/6/94,21,f,1,Carl sold the sofa,Sensible,edin_semantics,sem_emo_sem_emo,1.47367355920142,1,2,2,1,433005.127310479,38,B
12,4,2/6/94,21,f,2,The sweets offered Tom,Non-sensible,edin_semantics,sem_emo_sem_emo,1.31278319726698,1,2,2,1,433007.185524354,84,B
12,4,2/6/94,21,f,3,The donut iced Joe,Non-sensible,edin_semantics,sem_emo_sem_emo,0.877621899882797,1,1,1,1,433008.808536842,119,B
12,4,2/6/94,21,f,4,Amy measured the thread,Sensible,edin_semantics,sem_emo_sem_emo,4.08975044003455,1,1,1,1,433013.642413585,51,B
12,4,2/6/94,21,f,5,Mary iced the cake,Sensible,edin_semantics,sem_emo_sem_emo,0.774054127570707,1,2,2,1,433015.159594967,44,B
12,4,2/6/94,21,f,6,Ewan wrote the story,Sensible,edin_semantics,sem_emo_sem_emo,0.632981800998095,1,2,2,1,433016.535647576,74,B
12,4,2/6/94,21,f,7,The house dusted Alex,Non-sensible,edin_semantics,sem_emo_sem_emo,0.715228636050597,1,2,2,1,433017.994025917,122,B
12,4,2/6/94,21,f,8,Leo stored the wine,Sensible,edin_semantics,sem_emo_sem_emo,1.16209370980505,1,2,2,1,433019.899368435,52,B
12,4,2/6/94,21,f,9,The opera watched Adam,Non-sensible,edin_semantics,sem_emo_sem_emo,3.14980076765642,2,2,1,0,433023.7923776,108,B
12,4,2/6/94,21,f,10,The desk wiped Lucy,Non-sensible,edin_semantics,sem_emo_sem_emo,0.926870641415007,2,1,1,1,433025.462379024,115,B
12,4,2/6/94,21,f,11,Phil passed the towels,Sensible,edin_semantics,sem_emo_sem_emo,0.679851749562658,2,1,1,1,433026.885466753,43,B
12,4,2/6/94,21,f,12,Ryan painted the picture,Sensible,edin_semantics,sem_emo_sem_emo,0.632798348146025,2,1,1,1,433028.261548547,35,B
12,4,2/6/94,21,f,13,The church described Erin,Non-sensible,edin_semantics,sem_emo_sem_emo,1.44444747344824,1,1,1,1,433030.449117823,117,B
12,4,2/6/94,21,f,14,The crate lifted Amy,Non-sensible,edin_semantics,sem_emo_sem_emo,1.25631436886033,1,2,2,1,433032.448514225,144,B
12,4,2/6/94,21,f,15,Liz scrubbed the bowl,Sensible,edin_semantics,sem_emo_sem_emo,1.02143735915888,1,2,2,1,433034.21270167,56,B
12,4,2/6/94,21,f,16,Erin crushed the garlic,Sensible,edin_semantics,sem_emo_sem_emo,1.43270264478633,2,2,1,0,433036.388506874,6,B
12,4,2/6/94,21,f,17,The pot scrubbed Josh,Non-sensible,edin_semantics,sem_emo_sem_emo,0.727231645723805,2,1,1,1,433037.858684246,131,B
12,4,2/6/94,21,f,18,The trousers ironed Eve,Non-sensible,edin_semantics,sem_emo_sem_emo,1.51494017901132,1,2,2,1,433040.116799788,130,B
12,4,2/6/94,21,f,19,Jon cut the paper,Sensible,edin_semantics,sem_emo_sem_emo,1.06789838767145,2,2,2,1,433041.928019146,20,B
12,4,2/6/94,21,f,20,The carrots grated Tom,Non-sensible,edin_semantics,sem_emo_sem_emo,0.891550201922655,2,2,2,1,433043.562846059,140,B
12,4,2/6/94,21,f,21,Lily dented the lorry,Sensible,edin_semantics,sem_emo_sem_emo,2.37351441709325,1,1,1,1,433046.679502484,71,B
12,4,2/6/94,21,f,22,The plate licked Jane,Non-sensible,edin_semantics,sem_emo_sem_emo,1.18578542181058,2,2,2,1,433048.608363524,96,B
12,4,2/6/94,21,f,23,Tom knitted the scarf,Sensible,edin_semantics,sem_emo_sem_emo,1.99744384805672,1,2,2,1,433051.348697293,66,B
12,4,2/6/94,21,f,24,Tim pulled the handle,Sensible,edin_semantics,sem_emo_sem_emo,0.974128021858633,2,1,1,1,433053.065831657,73,B
12,4,2/6/94,21,f,25,The box labeled Ian,Non-sensible,edin_semantics,sem_emo_sem_emo,0.879599469946697,2,2,2,1,433054.688863067,136,B
12,4,2/6/94,21,f,26,Amy hugged the tree,Sensible,edin_semantics,sem_emo_sem_emo,1.96168498200132,1,1,1,1,433057.393938296,11,B
12,4,2/6/94,21,f,27,Matt offered the money,Sensible,edin_semantics,sem_emo_sem_emo,1.33872445131419,1,1,1,1,433059.475685126,9,B
12,4,2/6/94,21,f,28,Ryan entered the room,Sensible,edin_semantics,sem_emo_sem_emo,1.69032684108242,1,2,2,1,433061.910226789,58,B
12,4,2/6/94,21,f,29,The gum swallowed Owen,Non-sensible,edin_semantics,sem_emo_sem_emo,1.07942288054619,1,1,1,1,433063.733211823,97,B
12,4,2/6/94,21,f,30,Liz sliced the tomato,Sensible,edin_semantics,sem_emo_sem_emo,1.24430141679477,2,1,1,1,433065.720830041,3,B
12,4,2/6/94,21,f,31,The gift posted Jack,Non-sensible,edin_semantics,sem_emo_sem_emo,0.774149702629074,2,1,1,1,433067.238056003,111,B
12,4,2/6/94,21,f,32,Erin posted the card,Sensible,edin_semantics,sem_emo_sem_emo,0.938809827377554,2,2,2,1,433068.919912263,36,B
12,4,2/6/94,21,f,33,The lemon squeezed Jay,Non-sensible,edin_semantics,sem_emo_sem_emo,0.774249767826404,2,2,2,1,433070.437092363,76,B
12,4,2/6/94,21,f,34,Joe solved the puzzle,Sensible,edin_semantics,sem_emo_sem_emo,2.84407601359999,1,2,2,1,433074.024269332,34,B
12,4,2/6/94,21,f,35,Beth took the photo,Sensible,edin_semantics,sem_emo_sem_emo,1.45610442443285,2,1,1,1,433076.223600755,53,B
12,4,2/6/94,21,f,36,The door kicked Max,Non-sensible,edin_semantics,sem_emo_sem_emo,1.86789152421989,2,2,2,1,433078.834570785,114,B
12,4,2/6/94,21,f,37,Andy grated the cheese,Sensible,edin_semantics,sem_emo_sem_emo,0.797489903634414,2,1,1,1,433080.375301799,65,B
12,4,2/6/94,21,f,38,Matt kicked the bike,Sensible,edin_semantics,sem_emo_sem_emo,3.87908150436124,1,1,1,1,433084.997397985,39,B
12,4,2/6/94,21,f,39,The message typed Eve,Non-sensible,edin_semantics,sem_emo_sem_emo,1.17371185333468,2,2,2,1,433086.9144802,124,B
12,4,2/6/94,21,f,40,Jane punched the wall,Sensible,edin_semantics,sem_emo_sem_emo,0.703469374915585,2,2,2,1,433088.361093186,50,B
12,4,2/6/94,21,f,41,The fat chewed Adam,Non-sensible,edin_semantics,sem_emo_sem_emo,0.99732389813289,2,2,2,1,433090.101731641,106,B
12,4,2/6/94,21,f,42,Joe wore the jumper,Sensible,edin_semantics,sem_emo_sem_emo,0.762445605592802,2,1,1,1,433091.607179099,25,B
12,4,2/6/94,21,f,43,Jeff watered the garden,Sensible,edin_semantics,sem_emo_sem_emo,1.97374989098171,1,2,2,1,433094.324012305,54,B
12,4,2/6/94,21,f,44,The candy sucked Sam,Non-sensible,edin_semantics,sem_emo_sem_emo,2.35001706238836,2,1,1,1,433097.417228464,87,B
12,4,2/6/94,21,f,45,The ticket took Tim,Non-sensible,edin_semantics,sem_emo_sem_emo,1.26767080352874,1,2,2,1,433099.42833634,128,B
12,4,2/6/94,21,f,46,The salt passed Leo,Non-sensible,edin_semantics,sem_emo_sem_emo,1.12651829654351,2,2,2,1,433101.298343986,118,B
12,4,2/6/94,21,f,47,The hair trimmed Bill,Non-sensible,edin_semantics,sem_emo_sem_emo,1.20897520432482,2,1,1,1,433103.250748564,107,B
12,4,2/6/94,21,f,48,The nuts mixed Liam,Non-sensible,edin_semantics,sem_emo_sem_emo,2.00870983919594,2,1,1,1,433106.00283069,83,B
12,4,2/6/94,21,f,49,Jon jumped the fence,Sensible,edin_semantics,sem_emo_sem_emo,1.64405888703186,1,1,1,1,433108.390364814,17,B
12,4,2/6/94,21,f,50,Kate lifted the box,Sensible,edin_semantics,sem_emo_sem_emo,1.35039358970243,2,1,1,1,433110.483867698,69,B
12,4,2/6/94,21,f,51,Carl brushed the teeth,Sensible,edin_semantics,sem_emo_sem_emo,1.17340909206541,1,2,2,1,433112.400964667,72,B
12,4,2/6/94,21,f,52,The invite mailed Ian,Non-sensible,edin_semantics,sem_emo_sem_emo,1.70328880858142,1,1,1,1,433114.847295418,89,B
12,4,2/6/94,21,f,53,Beth wiped the table,Sensible,edin_semantics,sem_emo_sem_emo,0.785774260642938,1,2,2,1,433116.376223553,40,B
12,4,2/6/94,21,f,54,Kate served the dish,Sensible,edin_semantics,sem_emo_sem_emo,1.2211760993232,2,2,2,1,433118.34034602,70,B
12,4,2/6/94,21,f,55,The ribbon cut Lucy,Non-sensible,edin_semantics,sem_emo_sem_emo,1.75020750693511,2,1,1,1,433120.833675009,95,B
12,4,2/6/94,21,f,56,The rope pulled Andy,Non-sensible,edin_semantics,sem_emo_sem_emo,2.3617230837699,2,2,2,1,433123.938599434,148,B
12,4,2/6/94,21,f,57,The pan washed Beth,Non-sensible,edin_semantics,sem_emo_sem_emo,1.38524898269679,1,2,2,1,433126.067386195,132,B
12,4,2/6/94,21,f,58,The carrots chopped Fred,Non-sensible,edin_semantics,sem_emo_sem_emo,1.16225856071105,1,2,2,1,433127.97272743,102,B
12,4,2/6/94,21,f,59,Dan whisked the eggs,Sensible,edin_semantics,sem_emo_sem_emo,2.02056692051701,2,2,2,1,433130.73661051,62,B
12,4,2/6/94,21,f,60,Jon trimmed the bushes,Sensible,edin_semantics,sem_emo_sem_emo,1.29151165118674,1,2,2,1,433132.771284696,32,B
12,4,2/6/94,21,f,61,Jake dusted the shelf,Sensible,edin_semantics,sem_emo_sem_emo,1.0324871839257,2,1,1,1,433134.54722627,47,B
12,4,2/6/94,21,f,62,The problem solved Phil,Non-sensible,edin_semantics,sem_emo_sem_emo,1.31514531257562,1,1,1,1,433136.605435656,109,B
12,4,2/6/94,21,f,63,Tim ate the ham,Sensible,edin_semantics,sem_emo_sem_emo,0.691645969462115,1,1,1,1,433138.040248649,67,B
12,4,2/6/94,21,f,64,The rope pulled Emma,Non-sensible,edin_semantics,sem_emo_sem_emo,1.65630211727694,1,2,2,1,433140.439541394,120,B
12,4,2/6/94,21,f,65,The hair brushed Dan,Non-sensible,edin_semantics,sem_emo_sem_emo,1.20958553772653,2,1,1,1,433142.391921598,147,B
12,4,2/6/94,21,f,66,The ice crushed Josh,Non-sensible,edin_semantics,sem_emo_sem_emo,1.17386098898714,1,1,1,1,433144.308978796,81,B
12,4,2/6/94,21,f,67,Matt drank the juice,Sensible,edin_semantics,sem_emo_sem_emo,1.80873472726671,2,2,2,1,433146.861231738,60,B
12,4,2/6/94,21,f,68,Jen weighed the flour,Sensible,edin_semantics,sem_emo_sem_emo,1.10353730380302,1,2,2,1,433148.707652548,64,B
12,4,2/6/94,21,f,69,The kettle carried John,Non-sensible,edin_semantics,sem_emo_sem_emo,1.99738772172714,1,1,1,1,433151.448032501,105,B
12,4,2/6/94,21,f,70,The monitor punched Erin,Non-sensible,edin_semantics,sem_emo_sem_emo,1.27977804775583,1,1,1,1,433153.470929785,125,B
12,4,2/6/94,21,f,71,The curtains measured Rob,Non-sensible,edin_semantics,sem_emo_sem_emo,2.16178742051125,2,2,2,1,433156.375957354,126,B
12,4,2/6/94,21,f,72,Dan carried the folder,Sensible,edin_semantics,sem_emo_sem_emo,2.40920561086386,2,2,2,1,433159.527941595,30,B
12,4,2/6/94,21,f,73,Mark washed the dishes,Sensible,edin_semantics,sem_emo_sem_emo,0.973859577730764,2,1,1,1,433161.245082374,57,B
12,4,2/6/94,21,f,74,Lily got the kettle,Sensible,edin_semantics,sem_emo_sem_emo,0.809661612962373,2,1,1,1,433162.797538653,13,B
12,4,2/6/94,21,f,75,Will mashed the potatoes,Sensible,edin_semantics,sem_emo_sem_emo,1.05645503738197,2,2,1,0,433164.597014787,28,B
12,4,2/6/94,21,f,76,The radio fixed Luke,Non-sensible,edin_semantics,sem_emo_sem_emo,0.903466937423218,2,2,2,1,433166.243514045,112,B
12,4,2/6/94,21,f,77,The sugar weighed Liz,Non-sensible,edin_semantics,sem_emo_sem_emo,1.6914301236975,1,1,1,1,433168.678166036,139,B
12,4,2/6/94,21,f,78,The blanket stroked Ryan,Non-sensible,edin_semantics,sem_emo_sem_emo,1.75017992482753,2,2,2,1,433171.171481234,116,B
12,4,2/6/94,21,f,79,The cream whisked Tom,Non-sensible,edin_semantics,sem_emo_sem_emo,0.950684869079851,2,1,1,1,433172.865132035,137,B
12,4,2/6/94,21,f,80,Eve taught the lesson,Sensible,edin_semantics,sem_emo_sem_emo,0.714997074974235,2,1,1,1,433174.323486001,15,B
12,4,2/6/94,21,f,81,The turnip mashed Ella,Non-sensible,edin_semantics,sem_emo_sem_emo,1.6203774381429,1,1,1,1,433176.687472418,103,B
12,4,2/6/94,21,f,82,Ryan carried the gun,Sensible,edin_semantics,sem_emo_sem_emo,1.2801860057516,1,1,1,1,433178.710483879,75,B
12,4,2/6/94,21,f,83,The portrait painted Jay,Non-sensible,edin_semantics,sem_emo_sem_emo,1.12698751233984,2,2,2,1,433180.580423532,110,B
12,4,2/6/94,21,f,84,The beer drank Jack,Non-sensible,edin_semantics,sem_emo_sem_emo,0.821123885805719,2,1,1,1,433182.144652543,135,B
12,4,2/6/94,21,f,85,The wallet carried Leo,Non-sensible,edin_semantics,sem_emo_sem_emo,1.43249866581755,1,2,2,1,433184.320470896,150,B
12,4,2/6/94,21,f,86,The bowl dented Ian,Non-sensible,edin_semantics,sem_emo_sem_emo,1.92658199183643,1,2,2,1,433186.990266738,146,B
12,4,2/6/94,21,f,87,Tim cleaned the floor,Sensible,edin_semantics,sem_emo_sem_emo,1.47983750951244,2,1,1,1,433189.213118608,5,B
12,4,2/6/94,21,f,88,The socks knitted Ryan,Non-sensible,edin_semantics,sem_emo_sem_emo,0.785736094752792,2,1,1,1,433190.742056365,141,B
12,4,2/6/94,21,f,89,Rob stroked the fur,Sensible,edin_semantics,sem_emo_sem_emo,1.13876922405325,1,1,1,1,433192.623876191,41,B
12,4,2/6/94,21,f,90,The poster read Luke,Non-sensible,edin_semantics,sem_emo_sem_emo,1.79736289789435,1,1,1,1,433195.164282956,79,B
12,4,2/6/94,21,f,91,The debt paid Zoe,Non-sensible,edin_semantics,sem_emo_sem_emo,1.50334993813885,2,2,2,1,433197.410670988,134,B
12,4,2/6/94,21,f,92,Ella watched the movie,Sensible,edin_semantics,sem_emo_sem_emo,1.22113536763936,2,1,1,1,433199.374754969,33,B
12,4,2/6/94,21,f,93,The bed sold Jay,Non-sensible,edin_semantics,sem_emo_sem_emo,0.703507220081519,2,1,1,1,433200.821406442,113,B
12,4,2/6/94,21,f,94,Phil chopped the herbs,Sensible,edin_semantics,sem_emo_sem_emo,1.17405662924284,1,1,1,1,433202.738486091,27,B
12,4,2/6/94,21,f,95,Luke swallowed the pill,Sensible,edin_semantics,sem_emo_sem_emo,0.55073721089866,1,2,2,1,433204.032180895,22,B
12,4,2/6/94,21,f,96,Luke climbed the hill,Sensible,edin_semantics,sem_emo_sem_emo,1.20927475841017,2,2,2,1,433205.984531913,68,B
12,4,2/6/94,21,f,97,Mike paid the bill,Sensible,edin_semantics,sem_emo_sem_emo,1.06815432355506,1,1,1,1,433207.79577725,59,B
12,4,2/6/94,21,f,98,Leah sucked the lolly,Sensible,edin_semantics,sem_emo_sem_emo,0.762351634155493,2,2,2,1,433209.301187183,12,B
12,4,2/6/94,21,f,99,The perfume sniffed Tim,Non-sensible,edin_semantics,sem_emo_sem_emo,0.679599341645371,2,1,1,1,433210.724314682,93,B
12,4,2/6/94,21,f,100,Ian cancelled the plans,Sensible,edin_semantics,sem_emo_sem_emo,0.644846258859616,2,1,1,1,433212.112110195,7,B
12,4,2/6/94,21,f,101,The steak ate Mike,Non-sensible,edin_semantics,sem_emo_sem_emo,1.16204367717728,1,2,2,1,433214.017413585,142,B
12,4,2/6/94,21,f,102,John described the pen,Sensible,edin_semantics,sem_emo_sem_emo,0.914994316815864,1,2,2,1,433215.675759661,42,B
12,4,2/6/94,21,f,103,Max kissed the mirror,Sensible,edin_semantics,sem_emo_sem_emo,0.962655485840514,1,1,1,1,433217.381258563,23,B
12,4,2/6/94,21,f,104,The pillow hugged Kate,Non-sensible,edin_semantics,sem_emo_sem_emo,0.832103472494055,1,2,2,1,433218.957113415,86,B
12,4,2/6/94,21,f,105,The radio got Ben,Non-sensible,edin_semantics,sem_emo_sem_emo,1.15061059000436,2,2,2,1,433220.850637017,88,B
12,4,2/6/94,21,f,106,Josh ironed the shirt,Sensible,edin_semantics,sem_emo_sem_emo,0.715311702981126,2,1,1,1,433222.309018887,55,B
12,4,2/6/94,21,f,107,Jack mixed the fruits,Sensible,edin_semantics,sem_emo_sem_emo,2.18517829559278,1,2,2,1,433225.237591919,8,B
12,4,2/6/94,21,f,108,The rules taught Josh,Non-sensible,edin_semantics,sem_emo_sem_emo,2.3380037896568,2,2,2,1,433228.318983389,90,B
12,4,2/6/94,21,f,109,The hospital visited Tom,Non-sensible,edin_semantics,sem_emo_sem_emo,0.762024177238345,2,1,1,1,433229.824452656,91,B
12,4,2/6/94,21,f,110,The onion sliced Liam,Non-sensible,edin_semantics,sem_emo_sem_emo,0.726979558472522,2,2,2,1,433231.294590259,78,B
12,4,2/6/94,21,f,111,Sam tidied the room,Sensible,edin_semantics,sem_emo_sem_emo,0.761884342646226,2,2,2,1,433232.799997306,2,B
12,4,2/6/94,21,f,112,Rob mailed the parcel,Sensible,edin_semantics,sem_emo_sem_emo,0.527063459274359,2,2,2,1,433234.070181926,14,B
12,4,2/6/94,21,f,113,The party cancelled Phil,Non-sensible,edin_semantics,sem_emo_sem_emo,1.30342517950339,1,2,2,1,433236.116680479,82,B
12,4,2/6/94,21,f,114,Mary visited the museum,Sensible,edin_semantics,sem_emo_sem_emo,0.550429638766218,1,2,2,1,433237.410384263,16,B
12,4,2/6/94,21,f,115,The hotline dialed Hugh,Non-sensible,edin_semantics,sem_emo_sem_emo,1.20891426724847,2,2,2,1,433239.362735602,138,B
12,4,2/6/94,21,f,116,The rose kissed Hugh,Non-sensible,edin_semantics,sem_emo_sem_emo,1.24444766592933,1,2,2,1,433241.350377233,98,B
12,4,2/6/94,21,f,117,Max lent the bucket,Sensible,edin_semantics,sem_emo_sem_emo,1.67961762275081,1,1,1,1,433243.773182085,19,B
12,4,2/6/94,21,f,118,The report filed Ian,Non-sensible,edin_semantics,sem_emo_sem_emo,0.879688951245043,2,1,1,1,433245.396209326,99,B
12,4,2/6/94,21,f,119,Sean read the book,Sensible,edin_semantics,sem_emo_sem_emo,0.997783492319286,2,2,2,1,433247.136881777,4,B
12,4,2/6/94,21,f,120,The office entered Joe,Non-sensible,edin_semantics,sem_emo_sem_emo,1.09142653166782,2,1,1,1,433248.97162062,133,B
12,4,2/6/94,21,f,121,Bill counted the sheets,Sensible,edin_semantics,sem_emo_sem_emo,1.18597913772101,1,2,2,1,433250.900450229,48,B
12,4,2/6/94,21,f,122,Jon polished the coins,Sensible,edin_semantics,sem_emo_sem_emo,0.926814515085425,2,1,1,1,433252.570616825,29,B
12,4,2/6/94,21,f,123,The button pushed Ian,Non-sensible,edin_semantics,sem_emo_sem_emo,0.832543823402375,1,1,1,1,433254.146541915,101,B
12,4,2/6/94,21,f,124,Hugh pulled the lever,Sensible,edin_semantics,sem_emo_sem_emo,1.11485236539738,2,1,1,1,433256.004809543,45,B
12,4,2/6/94,21,f,125,The dress wore Kate,Non-sensible,edin_semantics,sem_emo_sem_emo,1.00888142531039,1,2,2,1,433257.757202768,100,B
12,4,2/6/94,21,f,126,The plants watered Luke,Non-sensible,edin_semantics,sem_emo_sem_emo,0.609378928842489,1,1,2,0,433259.1097484,129,B
12,4,2/6/94,21,f,127,Matt pushed the trolley,Sensible,edin_semantics,sem_emo_sem_emo,0.632592444831971,1,2,2,1,433260.485784652,26,B
12,4,2/6/94,21,f,128,The report wrote Alex,Non-sensible,edin_semantics,sem_emo_sem_emo,1.05586972029414,2,1,1,1,433262.285272652,149,B
12,4,2/6/94,21,f,129,Lara filed the papers,Sensible,edin_semantics,sem_emo_sem_emo,0.927204833424184,1,2,2,1,433263.955344635,24,B
12,4,2/6/94,21,f,130,The rice stored Fred,Non-sensible,edin_semantics,sem_emo_sem_emo,0.691712358791847,2,1,1,1,433265.390210547,127,B
12,4,2/6/94,21,f,131,Ben chewed the toffee,Sensible,edin_semantics,sem_emo_sem_emo,0.727284564811271,2,1,1,1,433266.860352319,31,B
12,4,2/6/94,21,f,132,The stairs climbed Ben,Non-sensible,edin_semantics,sem_emo_sem_emo,1.27947207930265,1,1,1,1,433268.883248962,143,B
12,4,2/6/94,21,f,133,Liz labeled the jar,Sensible,edin_semantics,sem_emo_sem_emo,0.656488777312916,1,1,1,1,433270.282832281,61,B
12,4,2/6/94,21,f,134,Jen fixed the laptop,Sensible,edin_semantics,sem_emo_sem_emo,1.10316302155843,2,1,1,1,433272.129366947,37,B
12,4,2/6/94,21,f,135,The car lent Fred,Non-sensible,edin_semantics,sem_emo_sem_emo,1.09144769923296,1,2,2,1,433273.964077566,94,B
12,4,2/6/94,21,f,136,Jen searched the room,Sensible,edin_semantics,sem_emo_sem_emo,1.32672625250416,1,2,2,1,433276.034048137,10,B
12,4,2/6/94,21,f,137,The hedge jumped Sara,Non-sensible,edin_semantics,sem_emo_sem_emo,1.1152757180389,2,2,2,1,433277.892319934,92,B
12,4,2/6/94,21,f,138,Phil sniffed the milk,Sensible,edin_semantics,sem_emo_sem_emo,0.773955986718647,2,2,2,1,433279.409539482,18,B
12,4,2/6/94,21,f,139,Phil typed the letter,Sensible,edin_semantics,sem_emo_sem_emo,1.33877704967745,1,1,1,1,433281.491255202,49,B
12,4,2/6/94,21,f,140,The garage tidied Erin,Non-sensible,edin_semantics,sem_emo_sem_emo,1.57329100236529,2,1,1,1,433283.808195273,77,B
12,4,2/6/94,21,f,141,Kate built the house,Sensible,edin_semantics,sem_emo_sem_emo,1.39725295448443,1,2,2,1,433285.948681962,46,B
12,4,2/6/94,21,f,142,The internet searched Max,Non-sensible,edin_semantics,sem_emo_sem_emo,1.4682193659828,1,1,1,1,433288.159836791,85,B
12,4,2/6/94,21,f,143,The shed built Rose,Non-sensible,edin_semantics,sem_emo_sem_emo,1.87951063003857,2,1,1,1,433290.782575703,121,B
12,4,2/6/94,21,f,144,The dessert served Fred,Non-sensible,edin_semantics,sem_emo_sem_emo,2.54998832574347,2,1,1,1,433294.075682945,145,B
12,4,2/6/94,21,f,145,Josh squeezed the ball,Sensible,edin_semantics,sem_emo_sem_emo,1.27971550705843,1,1,1,1,433296.098592096,1,B
12,4,2/6/94,21,f,146,Will licked the spoon,Sensible,edin_semantics,sem_emo_sem_emo,1.76154405687703,1,1,1,1,433298.603749301,21,B
12,4,2/6/94,21,f,147,The bath cleaned Jack,Non-sensible,edin_semantics,sem_emo_sem_emo,1.56209749425761,1,2,2,1,433300.908896114,80,B
12,4,2/6/94,21,f,148,The shoes counted Lucy,Non-sensible,edin_semantics,sem_emo_sem_emo,1.10322973167058,2,1,1,1,433302.755427253,123,B
12,4,2/6/94,21,f,149,The trophy polished Anna,Non-sensible,edin_semantics,sem_emo_sem_emo,1.16217645595316,2,2,2,1,433304.660751489,104,B
12,4,2/6/94,21,f,150,Tom dialed the number,Sensible,edin_semantics,sem_emo_sem_emo,0.856278191437013,2,1,1,1,433306.260276244,63,B
12,4,2/6/94,21,f,151,Beth washed the pan,Sensible,edin_semantics,sem_emo_sem_emo,1.21441817231243,2,2,2,1,433311.952642875,132,A
12,4,2/6/94,21,f,152,The garlic crushed Erin,Non-sensible,edin_semantics,sem_emo_sem_emo,2.06699683895567,1,2,2,1,433314.763573263,6,A
12,4,2/6/94,21,f,153,Josh scrubbed the pot,Sensible,edin_semantics,sem_emo_sem_emo,0.749608719488606,1,1,1,1,433316.257255366,131,A
12,4,2/6/94,21,f,154,The sheets counted Bill,Non-sensible,edin_semantics,sem_emo_sem_emo,1.31367929372936,2,2,2,1,433318.3154686,48,A
12,4,2/6/94,21,f,155,The bucket lent Max,Non-sensible,edin_semantics,sem_emo_sem_emo,0.654617366148159,1,1,1,1,433319.715021771,19,A
12,4,2/6/94,21,f,156,John carried the kettle,Sensible,edin_semantics,sem_emo_sem_emo,1.90219271014212,2,1,1,1,433322.361335973,105,A
12,4,2/6/94,21,f,157,The room searched Jen,Non-sensible,edin_semantics,sem_emo_sem_emo,1.53804913972272,1,2,2,1,433324.642959453,10,A
12,4,2/6/94,21,f,158,Sam sucked the candy,Sensible,edin_semantics,sem_emo_sem_emo,1.62004035961581,1,1,1,1,433327.006948436,87,A
12,4,2/6/94,21,f,159,Jay sold the bed,Sensible,edin_semantics,sem_emo_sem_emo,1.549220197252,2,1,1,1,433329.300374154,113,A
12,4,2/6/94,21,f,160,Tom offered the sweets,Sensible,edin_semantics,sem_emo_sem_emo,1.0307674742071,2,2,2,1,433331.076301938,84,A
12,4,2/6/94,21,f,161,The garden watered Jeff,Non-sensible,edin_semantics,sem_emo_sem_emo,0.70241227617953,2,2,2,1,433332.522967843,54,A
12,4,2/6/94,21,f,162,The bike kicked Matt,Non-sensible,edin_semantics,sem_emo_sem_emo,0.797348144697025,2,1,1,1,433334.063698216,39,A
12,4,2/6/94,21,f,163,The wall punched Jane,Non-sensible,edin_semantics,sem_emo_sem_emo,1.34954014921095,1,2,2,1,433336.157154916,50,A
12,4,2/6/94,21,f,164,The fruits mixed Jack,Non-sensible,edin_semantics,sem_emo_sem_emo,1.03250065422617,2,2,2,1,433337.933094887,8,A
12,4,2/6/94,21,f,165,The story wrote Ewan,Non-sensible,edin_semantics,sem_emo_sem_emo,1.97323384974152,1,2,2,1,433340.649930981,74,A
12,4,2/6/94,21,f,166,Jay painted the portrait,Sensible,edin_semantics,sem_emo_sem_emo,1.78500581148546,2,2,2,1,433343.17861633,110,A
12,4,2/6/94,21,f,167,Kate hugged the pillow,Sensible,edin_semantics,sem_emo_sem_emo,0.655941305332817,2,2,2,1,433344.578179122,86,A
12,4,2/6/94,21,f,168,Leo passed the salt,Sensible,edin_semantics,sem_emo_sem_emo,1.93727068399312,1,2,2,1,433347.259706322,118,A
12,4,2/6/94,21,f,169,Alex dusted the house,Sensible,edin_semantics,sem_emo_sem_emo,1.27815359237138,2,2,2,1,433349.282598474,122,A
12,4,2/6/94,21,f,170,Ella mashed the turnip,Sensible,edin_semantics,sem_emo_sem_emo,1.26729652134236,2,1,1,1,433351.293776909,103,A
12,4,2/6/94,21,f,171,Alex wrote the report,Sensible,edin_semantics,sem_emo_sem_emo,1.11437513149576,2,1,1,1,433353.15206378,149,A
12,4,2/6/94,21,f,172,Fred lent the car,Sensible,edin_semantics,sem_emo_sem_emo,1.47907771985047,1,2,2,1,433355.374886144,94,A
12,4,2/6/94,21,f,173,The plans cancelled Ian,Non-sensible,edin_semantics,sem_emo_sem_emo,1.24371000600513,1,1,1,1,433357.362526171,7,A
12,4,2/6/94,21,f,174,Adam watched the opera,Sensible,edin_semantics,sem_emo_sem_emo,1.27914718817919,2,2,2,1,433359.38545681,108,A
12,4,2/6/94,21,f,175,Ian filed the report,Sensible,edin_semantics,sem_emo_sem_emo,1.31448590877699,1,1,1,1,433361.44369057,99,A
12,4,2/6/94,21,f,176,The towels passed Phil,Non-sensible,edin_semantics,sem_emo_sem_emo,1.1966569252545,1,1,1,1,433363.384313758,43,A
12,4,2/6/94,21,f,177,Josh taught the rules,Sensible,edin_semantics,sem_emo_sem_emo,0.702864493825473,2,2,2,1,433364.830867411,90,A
12,4,2/6/94,21,f,178,Jack posted the gift,Sensible,edin_semantics,sem_emo_sem_emo,1.79662363434909,1,1,1,1,433367.371342169,111,A
12,4,2/6/94,21,f,179,Jack drank the beer,Sensible,edin_semantics,sem_emo_sem_emo,1.23136799351778,1,1,1,1,433369.34714981,135,A
12,4,2/6/94,21,f,180,The bushes trimmed Jon,Non-sensible,edin_semantics,sem_emo_sem_emo,0.879362135834526,1,2,2,1,433370.970241516,32,A
12,4,2/6/94,21,f,181,The dish served Kate,Non-sensible,edin_semantics,sem_emo_sem_emo,1.23204247123795,2,2,2,1,433372.946043064,70,A
12,4,2/6/94,21,f,182,Hugh kissed the rose,Sensible,edin_semantics,sem_emo_sem_emo,0.73820225225063,2,2,2,1,433374.427998299,98,A
12,4,2/6/94,21,f,183,Phil cancelled the party,Sensible,edin_semantics,sem_emo_sem_emo,1.54987992183305,1,2,2,1,433376.721459617,82,A
12,4,2/6/94,21,f,184,Owen swallowed the gum,Sensible,edin_semantics,sem_emo_sem_emo,1.50283999065869,2,1,1,1,433378.967819426,97,A
12,4,2/6/94,21,f,185,Bill trimmed the hair,Sensible,edin_semantics,sem_emo_sem_emo,0.714462752628606,2,1,1,1,433380.426172751,107,A
12,4,2/6/94,21,f,186,The lolly sucked Leah,Non-sensible,edin_semantics,sem_emo_sem_emo,2.13801681098994,1,2,2,1,433383.307685326,12,A
12,4,2/6/94,21,f,187,Tom whisked the cream,Sensible,edin_semantics,sem_emo_sem_emo,1.17305822257185,2,1,1,1,433385.224759844,137,A
12,4,2/6/94,21,f,188,Ben got the radio,Sensible,edin_semantics,sem_emo_sem_emo,1.45556849846616,2,2,1,0,433387.424058554,88,A
12,4,2/6/94,21,f,189,The pen described John,Non-sensible,edin_semantics,sem_emo_sem_emo,1.61960032948991,1,2,2,1,433389.788093079,42,A
12,4,2/6/94,21,f,190,Tim took the ticket,Sensible,edin_semantics,sem_emo_sem_emo,1.25586183054838,2,2,2,1,433391.787540796,128,A
12,4,2/6/94,21,f,191,The wine stored Leo,Non-sensible,edin_semantics,sem_emo_sem_emo,1.16151705209631,1,2,2,1,433393.692776834,52,A
12,4,2/6/94,21,f,192,The juice drank Matt,Non-sensible,edin_semantics,sem_emo_sem_emo,0.866636540216859,1,2,2,1,433395.304076886,60,A
12,4,2/6/94,21,f,193,Ryan knitted the socks,Sensible,edin_semantics,sem_emo_sem_emo,0.807528813602403,1,1,1,1,433396.856572293,141,A
12,4,2/6/94,21,f,194,Ian labeled the box,Sensible,edin_semantics,sem_emo_sem_emo,1.8195882703294,2,2,2,1,433399.420482827,136,A
12,4,2/6/94,21,f,195,The room entered Ryan,Non-sensible,edin_semantics,sem_emo_sem_emo,0.690544931858312,2,2,2,1,433400.855343288,58,A
12,4,2/6/94,21,f,196,Fred chopped the carrots,Sensible,edin_semantics,sem_emo_sem_emo,1.33792938222177,1,2,2,1,433402.937077289,102,A
12,4,2/6/94,21,f,197,The shelf dusted Jake,Non-sensible,edin_semantics,sem_emo_sem_emo,1.05542904866161,2,1,1,1,433404.736513973,47,A
12,4,2/6/94,21,f,198,The trolley pushed Matt,Non-sensible,edin_semantics,sem_emo_sem_emo,1.98491196829127,1,2,2,1,433407.465133702,26,A
12,4,2/6/94,21,f,199,The sofa sold Carl,Non-sensible,edin_semantics,sem_emo_sem_emo,1.60836416541133,1,2,2,1,433409.817336483,38,A
12,4,2/6/94,21,f,200,The scarf knitted Tom,Non-sensible,edin_semantics,sem_emo_sem_emo,1.25539229396963,1,2,2,1,433411.816737696,66,A
12,4,2/6/94,21,f,201,Ian pushed the button,Sensible,edin_semantics,sem_emo_sem_emo,0.761408391641453,2,1,1,1,433413.322173608,101,A
12,4,2/6/94,21,f,202,Joe entered the office,Sensible,edin_semantics,sem_emo_sem_emo,0.585018191370182,2,1,1,1,433414.651174098,133,A
12,4,2/6/94,21,f,203,The paper cut Jon,Non-sensible,edin_semantics,sem_emo_sem_emo,1.29166912549408,1,2,2,1,433416.686321989,20,A
12,4,2/6/94,21,f,204,Tom visited the hospital,Sensible,edin_semantics,sem_emo_sem_emo,1.41807516949484,1,1,1,1,433418.849937203,91,A
12,4,2/6/94,21,f,205,Dan brushed the hair,Sensible,edin_semantics,sem_emo_sem_emo,1.13822720438475,2,1,1,1,433420.731715977,147,A
12,4,2/6/94,21,f,206,Amy lifted the crate,Sensible,edin_semantics,sem_emo_sem_emo,0.926560824213084,2,2,2,1,433422.401789242,144,A
12,4,2/6/94,21,f,207,Max searched the internet,Sensible,edin_semantics,sem_emo_sem_emo,0.973624488746282,2,1,1,1,433424.118947661,85,A
12,4,2/6/94,21,f,208,The handle pulled Tim,Non-sensible,edin_semantics,sem_emo_sem_emo,1.14950089290505,2,1,1,1,433426.012491469,73,A
12,4,2/6/94,21,f,209,The lorry dented Lily,Non-sensible,edin_semantics,sem_emo_sem_emo,1.4793766324874,1,1,1,1,433428.235329548,71,A
12,4,2/6/94,21,f,210,Phil solved the problem,Sensible,edin_semantics,sem_emo_sem_emo,0.585667973500676,1,1,1,1,433429.564332604,109,A
12,4,2/6/94,21,f,211,Lucy wiped the desk,Sensible,edin_semantics,sem_emo_sem_emo,0.63267903967062,1,1,1,1,433430.940393551,115,A
12,4,2/6/94,21,f,212,The eggs whisked Dan,Non-sensible,edin_semantics,sem_emo_sem_emo,1.07943987881299,2,2,2,1,433432.763378585,62,A
12,4,2/6/94,21,f,213,The money offered Matt,Non-sensible,edin_semantics,sem_emo_sem_emo,1.04414541780716,1,1,1,1,433434.551067875,9,A
12,4,2/6/94,21,f,214,The cake iced Mary,Non-sensible,edin_semantics,sem_emo_sem_emo,1.16169633559184,1,2,2,1,433436.456423222,44,A
12,4,2/6/94,21,f,215,The herbs chopped Phil,Non-sensible,edin_semantics,sem_emo_sem_emo,0.632373712607659,1,1,1,1,433437.832454983,27,A
12,4,2/6/94,21,f,216,The parcel mailed Rob,Non-sensible,edin_semantics,sem_emo_sem_emo,1.18516097665997,2,2,2,1,433439.761295177,14,A
12,4,2/6/94,21,f,217,The kettle got Lily,Non-sensible,edin_semantics,sem_emo_sem_emo,0.950048236525618,1,1,1,1,433441.45488023,13,A
12,4,2/6/94,21,f,218,The pill swallowed Luke,Non-sensible,edin_semantics,sem_emo_sem_emo,1.47931794042233,2,2,2,1,433443.677748777,22,A
12,4,2/6/94,21,f,219,Tim sniffed the perfume,Sensible,edin_semantics,sem_emo_sem_emo,0.961949577380437,1,1,1,1,433445.383117787,93,A
12,4,2/6/94,21,f,220,The fur stroked Rob,Non-sensible,edin_semantics,sem_emo_sem_emo,1.1028018888901,2,1,1,1,433447.229612042,41,A
12,4,2/6/94,21,f,221,Sara jumped the hedge,Sensible,edin_semantics,sem_emo_sem_emo,1.06773417815566,2,2,2,1,433449.040848078,92,A
12,4,2/6/94,21,f,222,The folder carried Dan,Non-sensible,edin_semantics,sem_emo_sem_emo,0.950223671330605,1,2,2,1,433450.734431527,30,A
12,4,2/6/94,21,f,223,Lucy cut the ribbon,Sensible,edin_semantics,sem_emo_sem_emo,1.07944372744532,2,1,1,1,433452.557427466,95,A
12,4,2/6/94,21,f,224,The box lifted Kate,Non-sensible,edin_semantics,sem_emo_sem_emo,1.33843804680509,2,1,1,1,433454.639193539,69,A
12,4,2/6/94,21,f,225,The tomato sliced Liz,Non-sensible,edin_semantics,sem_emo_sem_emo,1.33831104106503,2,1,1,1,433456.720894826,3,A
12,4,2/6/94,21,f,226,The shirt ironed Josh,Non-sensible,edin_semantics,sem_emo_sem_emo,3.43158011883497,2,1,1,1,433460.896115034,55,A
12,4,2/6/94,21,f,227,Lucy counted the shoes,Sensible,edin_semantics,sem_emo_sem_emo,1.26716470468091,1,1,1,1,433462.907290582,123,A
12,4,2/6/94,21,f,228,The lesson taught Eve,Non-sensible,edin_semantics,sem_emo_sem_emo,1.34997729293536,2,1,1,1,433465.000739264,15,A
12,4,2/6/94,21,f,229,The tree hugged Amy,Non-sensible,edin_semantics,sem_emo_sem_emo,1.54971891950117,1,1,1,1,433467.294165303,11,A
12,4,2/6/94,21,f,230,The laptop fixed Jen,Non-sensible,edin_semantics,sem_emo_sem_emo,2.13748697866686,2,1,1,1,433470.175683009,37,A
12,4,2/6/94,21,f,231,Erin described the church,Sensible,edin_semantics,sem_emo_sem_emo,1.30303903052118,2,1,1,1,433472.222107154,117,A
12,4,2/6/94,21,f,232,Rose built the shed,Sensible,edin_semantics,sem_emo_sem_emo,1.52658398036147,2,1,1,1,433474.492017237,121,A
12,4,2/6/94,21,f,233,The photo took Beth,Non-sensible,edin_semantics,sem_emo_sem_emo,0.620265185541939,2,1,1,1,433475.856283644,53,A
12,4,2/6/94,21,f,234,Kate wore the dress,Sensible,edin_semantics,sem_emo_sem_emo,0.95009858981939,2,2,2,1,433477.549909428,100,A
12,4,2/6/94,21,f,235,Liz weighed the sugar,Sensible,edin_semantics,sem_emo_sem_emo,0.644085186242592,2,1,1,1,433478.93775337,139,A
12,4,2/6/94,21,f,236,Ian mailed the invite,Sensible,edin_semantics,sem_emo_sem_emo,0.702955578803085,2,1,1,1,433480.384356735,89,A
12,4,2/6/94,21,f,237,The house built Kate,Non-sensible,edin_semantics,sem_emo_sem_emo,1.20862016541651,1,2,2,1,433482.336722506,46,A
12,4,2/6/94,21,f,238,The floor cleaned Tim,Non-sensible,edin_semantics,sem_emo_sem_emo,0.749573440116365,1,1,2,0,433483.830341107,5,A
12,4,2/6/94,21,f,239,Jack cleaned the bath,Sensible,edin_semantics,sem_emo_sem_emo,1.64420257037273,2,2,2,1,433486.217923981,80,A
12,4,2/6/94,21,f,240,The dishes washed Mark,Non-sensible,edin_semantics,sem_emo_sem_emo,0.750226108822972,2,1,1,1,433487.711561183,57,A
12,4,2/6/94,21,f,241,The flour weighed Jen,Non-sensible,edin_semantics,sem_emo_sem_emo,1.07952551147901,1,2,2,1,433489.53453852,64,A
12,4,2/6/94,21,f,242,Eve ironed the trousers,Sensible,edin_semantics,sem_emo_sem_emo,0.549902693019249,1,2,2,1,433490.828245511,130,A
12,4,2/6/94,21,f,243,The lever pulled Hugh,Non-sensible,edin_semantics,sem_emo_sem_emo,0.726486929925159,1,1,1,1,433492.298414224,45,A
12,4,2/6/94,21,f,244,Josh crushed the ice,Sensible,edin_semantics,sem_emo_sem_emo,1.16143366449978,2,1,1,1,433494.203714406,81,A
12,4,2/6/94,21,f,245,Zoe paid the debt,Sensible,edin_semantics,sem_emo_sem_emo,1.36181224434404,2,2,1,0,433496.309010869,134,A
12,4,2/6/94,21,f,246,The ham ate Tim,Non-sensible,edin_semantics,sem_emo_sem_emo,1.05500409239903,2,1,1,1,433498.108388219,67,A
12,4,2/6/94,21,f,247,The thread measured Amy,Non-sensible,edin_semantics,sem_emo_sem_emo,1.53789872117341,1,1,1,1,433500.390105671,51,A
12,4,2/6/94,21,f,248,The letter typed Phil,Non-sensible,edin_semantics,sem_emo_sem_emo,1.16153982334072,2,1,1,1,433502.295420607,49,A
12,4,2/6/94,21,f,249,The ball squeezed Josh,Non-sensible,edin_semantics,sem_emo_sem_emo,1.0665689962334,1,1,1,1,433504.106693847,1,A
12,4,2/6/94,21,f,250,The number dialed Tom,Non-sensible,edin_semantics,sem_emo_sem_emo,1.09017090615816,2,1,1,1,433505.941363093,63,A
12,4,2/6/94,21,f,251,Ryan stroked the blanket,Sensible,edin_semantics,sem_emo_sem_emo,1.32605369907105,2,2,2,1,433508.011350341,116,A
12,4,2/6/94,21,f,252,The bowl scrubbed Liz,Non-sensible,edin_semantics,sem_emo_sem_emo,1.16071813437156,1,2,2,1,433509.916644109,56,A
12,4,2/6/94,21,f,253,The spoon licked Will,Non-sensible,edin_semantics,sem_emo_sem_emo,0.726568072568625,1,1,1,1,433511.386792937,21,A
12,4,2/6/94,21,f,254,Fred served the dessert,Sensible,edin_semantics,sem_emo_sem_emo,1.79648540331982,2,1,1,1,433513.927202268,145,A
12,4,2/6/94,21,f,255,Luke fixed the radio,Sensible,edin_semantics,sem_emo_sem_emo,1.70264255441725,1,2,2,1,433516.373529491,112,A
12,4,2/6/94,21,f,256,Erin tidied the garage,Sensible,edin_semantics,sem_emo_sem_emo,1.53792630328098,1,1,1,1,433518.655190817,77,A
12,4,2/6/94,21,f,257,Jay squeezed the lemon,Sensible,edin_semantics,sem_emo_sem_emo,0.608909071597736,1,2,2,1,433520.007743184,76,A
12,4,2/6/94,21,f,258,Mike ate the steak,Sensible,edin_semantics,sem_emo_sem_emo,0.632275892479811,1,2,2,1,433521.383788095,142,A
12,4,2/6/94,21,f,259,The table wiped Beth,Non-sensible,edin_semantics,sem_emo_sem_emo,0.573643475479912,1,2,2,1,433522.701061717,40,A
12,4,2/6/94,21,f,260,The potatoes mashed Will,Non-sensible,edin_semantics,sem_emo_sem_emo,0.432443180994596,1,2,2,1,433523.877144345,28,A
12,4,2/6/94,21,f,261,The milk sniffed Phil,Non-sensible,edin_semantics,sem_emo_sem_emo,0.479342315287795,1,2,2,1,433525.100309881,18,A
12,4,2/6/94,21,f,262,The movie watched Ella,Non-sensible,edin_semantics,sem_emo_sem_emo,0.785397091938648,1,1,1,1,433526.629268164,33,A
12,4,2/6/94,21,f,263,Andy pulled the rope,Sensible,edin_semantics,sem_emo_sem_emo,0.526487122348044,1,2,2,1,433527.899460482,148,A
12,4,2/6/94,21,f,264,Tom grated the carrots,Sensible,edin_semantics,sem_emo_sem_emo,0.66734969697427,1,2,2,1,433529.310841869,140,A
12,4,2/6/94,21,f,265,Liam sliced the onion,Sensible,edin_semantics,sem_emo_sem_emo,1.2081204810529,2,2,2,1,433531.263177813,78,A
12,4,2/6/94,21,f,266,Max kicked the door,Sensible,edin_semantics,sem_emo_sem_emo,1.2086256176699,1,2,2,1,433533.215497722,114,A
12,4,2/6/94,21,f,267,Luke read the poster,Sensible,edin_semantics,sem_emo_sem_emo,1.34989101876272,2,1,1,1,433535.309018245,79,A
12,4,2/6/94,21,f,268,Joe iced the donut,Sensible,edin_semantics,sem_emo_sem_emo,1.17265988618601,2,1,1,1,433537.226088273,119,A
12,4,2/6/94,21,f,269,The mirror kissed Max,Non-sensible,edin_semantics,sem_emo_sem_emo,0.71493389288662,2,1,1,1,433538.684477198,23,A
12,4,2/6/94,21,f,270,The picture painted Ryan,Non-sensible,edin_semantics,sem_emo_sem_emo,0.72644876409322,2,1,1,1,433540.154623781,35,A
12,4,2/6/94,21,f,271,The jar labeled Liz,Non-sensible,edin_semantics,sem_emo_sem_emo,2.50239963975037,1,1,2,0,433543.40068628,61,A
12,4,2/6/94,21,f,272,The hill climbed Luke,Non-sensible,edin_semantics,sem_emo_sem_emo,1.07963519828627,2,2,2,1,433545.223692482,68,A
12,4,2/6/94,21,f,273,The toffee chewed Ben,Non-sensible,edin_semantics,sem_emo_sem_emo,0.926650947018061,2,1,1,1,433546.893776011,31,A
12,4,2/6/94,21,f,274,Adam chewed the fat,Sensible,edin_semantics,sem_emo_sem_emo,1.27891658927547,2,2,2,1,433548.916675861,106,A
12,4,2/6/94,21,f,275,Hugh dialed the hotline,Sensible,edin_semantics,sem_emo_sem_emo,1.59671843971591,1,2,2,1,433551.257148887,138,A
12,4,2/6/94,21,f,276,Liam mixed the nuts,Sensible,edin_semantics,sem_emo_sem_emo,0.761627123865765,1,1,1,1,433552.762568763,83,A
12,4,2/6/94,21,f,277,The room tidied Sam,Non-sensible,edin_semantics,sem_emo_sem_emo,0.902425233332906,1,2,2,1,433554.409132486,2,A
12,4,2/6/94,21,f,278,Anna polished the trophy,Sensible,edin_semantics,sem_emo_sem_emo,0.584883488190826,1,2,2,1,433555.738197121,104,A
12,4,2/6/94,21,f,279,The bill paid Mike,Non-sensible,edin_semantics,sem_emo_sem_emo,1.11476448766189,2,1,1,1,433557.596413433,59,A
12,4,2/6/94,21,f,280,Luke watered the plants,Sensible,edin_semantics,sem_emo_sem_emo,0.761987614969257,2,1,1,1,433559.101865702,129,A
12,4,2/6/94,21,f,281,Ben climbed the stairs,Sensible,edin_semantics,sem_emo_sem_emo,4.40777166414773,1,1,2,0,433564.253251477,143,A
12,4,2/6/94,21,f,282,Erin punched the monitor,Sensible,edin_semantics,sem_emo_sem_emo,2.67877444537589,2,1,1,1,433567.67575902,125,A
12,4,2/6/94,21,f,283,Fred stored the rice,Sensible,edin_semantics,sem_emo_sem_emo,1.12662734190235,1,1,1,1,433569.546047297,127,A
12,4,2/6/94,21,f,284,Emma pulled the rope,Sensible,edin_semantics,sem_emo_sem_emo,1.13793695124332,2,2,2,1,433571.427571098,120,A
12,4,2/6/94,21,f,285,The jumper wore Joe,Non-sensible,edin_semantics,sem_emo_sem_emo,1.41981219820445,1,1,1,1,433573.5916257,25,A
12,4,2/6/94,21,f,286,Ian dented the bowl,Sensible,edin_semantics,sem_emo_sem_emo,2.10232144780457,2,2,2,1,433576.437917259,146,A
12,4,2/6/94,21,f,287,Jane licked the plate,Sensible,edin_semantics,sem_emo_sem_emo,2.93760487594409,1,2,2,1,433580.119040991,96,A
12,4,2/6/94,21,f,288,The gun carried Ryan,Non-sensible,edin_semantics,sem_emo_sem_emo,1.22022708377335,1,1,1,1,433582.083199379,75,A
12,4,2/6/94,21,f,289,Rob measured the curtains,Sensible,edin_semantics,sem_emo_sem_emo,2.25550262222532,2,2,2,1,433585.082309055,126,A
12,4,2/6/94,21,f,290,The papers filed Lara,Non-sensible,edin_semantics,sem_emo_sem_emo,1.46721614850685,1,2,2,1,433587.29343085,24,A
12,4,2/6/94,21,f,291,The puzzle solved Joe,Non-sensible,edin_semantics,sem_emo_sem_emo,1.3258987904992,1,2,2,1,433589.363371593,34,A
12,4,2/6/94,21,f,292,The fence jumped Jon,Non-sensible,edin_semantics,sem_emo_sem_emo,0.714318748621736,1,1,1,1,433590.821754425,17,A
12,4,2/6/94,21,f,293,The book read Sean,Non-sensible,edin_semantics,sem_emo_sem_emo,1.59633806376951,2,2,2,1,433593.16223611,4,A
12,4,2/6/94,21,f,294,The card posted Erin,Non-sensible,edin_semantics,sem_emo_sem_emo,1.04242282157065,2,2,2,1,433594.949897497,36,A
12,4,2/6/94,21,f,295,Leo carried the wallet,Sensible,edin_semantics,sem_emo_sem_emo,0.772485157009214,2,2,2,1,433596.467106782,150,A
12,4,2/6/94,21,f,296,The teeth brushed Carl,Non-sensible,edin_semantics,sem_emo_sem_emo,0.878138903295621,2,2,2,1,433598.090156794,72,A
12,4,2/6/94,21,f,297,The cheese grated Andy,Non-sensible,edin_semantics,sem_emo_sem_emo,0.867038083728403,2,1,1,1,433599.701362875,65,A
12,4,2/6/94,21,f,298,The coins polished Jon,Non-sensible,edin_semantics,sem_emo_sem_emo,1.43242746556643,1,1,1,1,433601.877230299,29,A
12,4,2/6/94,21,f,299,Eve typed the message,Sensible,edin_semantics,sem_emo_sem_emo,0.620295654051006,1,2,2,1,433603.241507289,124,A
12,4,2/6/94,21,f,300,The museum visited Mary,Non-sensible,edin_semantics,sem_emo_sem_emo,1.20842195942532,2,2,2,1,433605.193878513,16,A
