subject_column,AssignedList_column,subject_dob_column,subject_age_column,subject_gender_column,trialnum_column,Stim_column,Type_column,Experiment_column,OrderGroup_column,ReactionTime_column,StimSide_column,StimPosition_column,Response_column,Valid_column,TrialEndSecs_column,PairID_column,List_column
14,2,25/3/95,21,f,1,Mike ate the steak,Sensible,edin_semantics,sem_emo_sem_emo,1.99005826871144,2,2,2,1,441478.829294592,142,A
14,2,25/3/95,21,f,2,The eggs whisked Dan,Non-sensible,edin_semantics,sem_emo_sem_emo,2.27619783143746,1,2,2,1,441481.851939789,62,A
14,2,25/3/95,21,f,3,The ham ate Tim,Non-sensible,edin_semantics,sem_emo_sem_emo,1.35981607250869,2,1,1,1,441483.957178842,67,A
14,2,25/3/95,21,f,4,Ian pushed the button,Sensible,edin_semantics,sem_emo_sem_emo,1.56017444696045,2,1,1,1,441486.262344899,101,A
14,2,25/3/95,21,f,5,Rob measured the curtains,Sensible,edin_semantics,sem_emo_sem_emo,2.51470444852021,2,2,2,1,441489.520253575,126,A
14,2,25/3/95,21,f,6,Josh scrubbed the pot,Sensible,edin_semantics,sem_emo_sem_emo,1.11519265110837,2,1,1,1,441491.378452248,131,A
14,2,25/3/95,21,f,7,The money offered Matt,Non-sensible,edin_semantics,sem_emo_sem_emo,1.65624663245399,1,1,2,0,441493.777751087,9,A
14,2,25/3/95,21,f,8,The toffee chewed Ben,Non-sensible,edin_semantics,sem_emo_sem_emo,1.69158342870651,2,1,1,1,441496.212380307,31,A
14,2,25/3/95,21,f,9,The hill climbed Luke,Non-sensible,edin_semantics,sem_emo_sem_emo,1.27989254536806,2,2,2,1,441498.235306777,68,A
14,2,25/3/95,21,f,10,Zoe paid the debt,Sensible,edin_semantics,sem_emo_sem_emo,1.85642796847969,2,2,2,1,441500.834477775,134,A
14,2,25/3/95,21,f,11,Kate wore the dress,Sensible,edin_semantics,sem_emo_sem_emo,1.98569356708322,1,2,2,1,441503.563059339,100,A
14,2,25/3/95,21,f,12,Fred stored the rice,Sensible,edin_semantics,sem_emo_sem_emo,2.04394304240122,2,1,1,1,441506.350419889,127,A
14,2,25/3/95,21,f,13,The tree hugged Amy,Non-sensible,edin_semantics,sem_emo_sem_emo,1.69086950214114,1,1,2,0,441508.78503179,11,A
14,2,25/3/95,21,f,14,The wine stored Leo,Non-sensible,edin_semantics,sem_emo_sem_emo,1.03281945164781,2,2,2,1,441510.56097593,52,A
14,2,25/3/95,21,f,15,Tom offered the sweets,Sensible,edin_semantics,sem_emo_sem_emo,1.79708290786948,2,2,2,1,441513.101388789,84,A
14,2,25/3/95,21,f,16,The shirt ironed Josh,Non-sensible,edin_semantics,sem_emo_sem_emo,1.15039410284953,2,1,1,1,441514.994921693,55,A
14,2,25/3/95,21,f,17,The room tidied Sam,Non-sensible,edin_semantics,sem_emo_sem_emo,1.92677346273558,2,2,2,1,441517.66470695,2,A
14,2,25/3/95,21,f,18,Lucy wiped the desk,Sensible,edin_semantics,sem_emo_sem_emo,2.49130715901265,1,1,1,1,441520.899031677,115,A
14,2,25/3/95,21,f,19,The flour weighed Jen,Non-sensible,edin_semantics,sem_emo_sem_emo,2.23266659566434,2,2,2,1,441523.87464432,64,A
14,2,25/3/95,21,f,20,The picture painted Ryan,Non-sensible,edin_semantics,sem_emo_sem_emo,0.785649179248139,1,1,1,1,441525.403582397,35,A
14,2,25/3/95,21,f,21,Luke fixed the radio,Sensible,edin_semantics,sem_emo_sem_emo,1.43251502257772,1,2,2,1,441527.579376055,112,A
14,2,25/3/95,21,f,22,The sofa sold Carl,Non-sensible,edin_semantics,sem_emo_sem_emo,1.58589696878335,2,2,2,1,441529.9080988,38,A
14,2,25/3/95,21,f,23,Jack cleaned the bath,Sensible,edin_semantics,sem_emo_sem_emo,1.53818063560175,2,2,2,1,441532.189752108,80,A
14,2,25/3/95,21,f,24,The parcel mailed Rob,Non-sensible,edin_semantics,sem_emo_sem_emo,1.47980479593389,2,2,2,1,441534.412670688,14,A
14,2,25/3/95,21,f,25,Anna polished the trophy,Sensible,edin_semantics,sem_emo_sem_emo,1.64471027284162,1,2,2,1,441536.800178193,104,A
14,2,25/3/95,21,f,26,Josh crushed the ice,Sensible,edin_semantics,sem_emo_sem_emo,1.91359564947197,1,1,1,1,441539.458184946,81,A
14,2,25/3/95,21,f,27,The dishes washed Mark,Non-sensible,edin_semantics,sem_emo_sem_emo,1.69147694908315,1,1,1,1,441541.89274457,57,A
14,2,25/3/95,21,f,28,Ian filed the report,Sensible,edin_semantics,sem_emo_sem_emo,1.67955059191445,2,1,1,1,441544.315567382,99,A
14,2,25/3/95,21,f,29,Adam watched the opera,Sensible,edin_semantics,sem_emo_sem_emo,1.7618837011978,2,2,2,1,441546.82068129,108,A
14,2,25/3/95,21,f,30,Erin described the church,Sensible,edin_semantics,sem_emo_sem_emo,1.83235042821616,2,1,1,1,441549.396380591,117,A
14,2,25/3/95,21,f,31,The bike kicked Matt,Non-sensible,edin_semantics,sem_emo_sem_emo,1.89138021942927,2,1,1,1,441552.030899932,39,A
14,2,25/3/95,21,f,32,Ian mailed the invite,Sensible,edin_semantics,sem_emo_sem_emo,1.92646556987893,2,1,1,1,441554.700690642,89,A
14,2,25/3/95,21,f,33,The juice drank Matt,Non-sensible,edin_semantics,sem_emo_sem_emo,1.97391089325538,2,2,2,1,441557.417527698,60,A
14,2,25/3/95,21,f,34,Liam sliced the onion,Sensible,edin_semantics,sem_emo_sem_emo,1.89130420837319,2,2,2,1,441560.052029719,78,A
14,2,25/3/95,21,f,35,The bowl scrubbed Liz,Non-sensible,edin_semantics,sem_emo_sem_emo,1.13866691384465,1,2,2,1,441561.933863657,56,A
14,2,25/3/95,21,f,36,The card posted Erin,Non-sensible,edin_semantics,sem_emo_sem_emo,1.42094113858184,2,2,2,1,441564.097865982,36,A
14,2,25/3/95,21,f,37,The garlic crushed Erin,Non-sensible,edin_semantics,sem_emo_sem_emo,1.65637556253932,1,2,2,1,441566.497116712,6,A
14,2,25/3/95,21,f,38,Ben got the radio,Sensible,edin_semantics,sem_emo_sem_emo,1.62112888909178,1,2,2,1,441568.861090941,88,A
14,2,25/3/95,21,f,39,Jack drank the beer,Sensible,edin_semantics,sem_emo_sem_emo,1.67978054936975,2,1,1,1,441571.283928187,135,A
14,2,25/3/95,21,f,40,Ella mashed the turnip,Sensible,edin_semantics,sem_emo_sem_emo,1.35069795459276,1,1,1,1,441573.377416638,103,A
14,2,25/3/95,21,f,41,Ben climbed the stairs,Sensible,edin_semantics,sem_emo_sem_emo,1.51525673130527,2,1,1,1,441575.635575798,143,A
14,2,25/3/95,21,f,42,Alex dusted the house,Sensible,edin_semantics,sem_emo_sem_emo,2.51453350391239,1,2,2,1,441578.893411991,122,A
14,2,25/3/95,21,f,43,Jack posted the gift,Sensible,edin_semantics,sem_emo_sem_emo,1.7739688156289,2,1,1,1,441581.410326533,111,A
14,2,25/3/95,21,f,44,Jay painted the portrait,Sensible,edin_semantics,sem_emo_sem_emo,1.66794431500603,1,2,2,1,441583.82135673,110,A
14,2,25/3/95,21,f,45,Erin punched the monitor,Sensible,edin_semantics,sem_emo_sem_emo,1.86806471395539,2,1,1,1,441586.4323537,125,A
14,2,25/3/95,21,f,46,The dish served Kate,Non-sensible,edin_semantics,sem_emo_sem_emo,1.73840815556468,2,2,2,1,441588.914159799,70,A
14,2,25/3/95,21,f,47,The fence jumped Jon,Non-sensible,edin_semantics,sem_emo_sem_emo,1.71504999411991,1,1,1,1,441591.372032362,17,A
14,2,25/3/95,21,f,48,Fred chopped the carrots,Sensible,edin_semantics,sem_emo_sem_emo,1.83195626124507,2,2,2,1,441593.947715948,102,A
14,2,25/3/95,21,f,49,Max kicked the door,Sensible,edin_semantics,sem_emo_sem_emo,2.25596125423908,1,2,2,1,441596.946821455,114,A
14,2,25/3/95,21,f,50,The potatoes mashed Will,Non-sensible,edin_semantics,sem_emo_sem_emo,1.93830982228974,1,2,2,1,441599.62839965,28,A
14,2,25/3/95,21,f,51,The paper cut Jon,Non-sensible,edin_semantics,sem_emo_sem_emo,2.02037737396313,2,2,2,1,441602.392228528,20,A
14,2,25/3/95,21,f,52,The thread measured Amy,Non-sensible,edin_semantics,sem_emo_sem_emo,1.86789665574906,2,1,1,1,441605.003225177,51,A
14,2,25/3/95,21,f,53,The house built Kate,Non-sensible,edin_semantics,sem_emo_sem_emo,2.18529760406818,1,2,2,1,441607.931796927,46,A
14,2,25/3/95,21,f,54,Hugh kissed the rose,Sensible,edin_semantics,sem_emo_sem_emo,1.97319824964507,1,2,2,1,441610.648617305,98,A
14,2,25/3/95,21,f,55,John carried the kettle,Sensible,edin_semantics,sem_emo_sem_emo,1.98522916203365,1,1,1,1,441613.377212018,105,A
14,2,25/3/95,21,f,56,The puzzle solved Joe,Non-sensible,edin_semantics,sem_emo_sem_emo,1.71532741835108,1,2,2,1,441615.835285994,34,A
14,2,25/3/95,21,f,57,The teeth brushed Carl,Non-sensible,edin_semantics,sem_emo_sem_emo,1.70337412058143,2,2,2,1,441618.281602954,72,A
14,2,25/3/95,21,f,58,Erin tidied the garage,Sensible,edin_semantics,sem_emo_sem_emo,1.91517648677109,2,1,1,1,441620.939635044,77,A
14,2,25/3/95,21,f,59,Ian labeled the box,Sensible,edin_semantics,sem_emo_sem_emo,1.47984713118058,2,2,2,1,441623.162514497,136,A
14,2,25/3/95,21,f,60,Sara jumped the hedge,Sensible,edin_semantics,sem_emo_sem_emo,1.55028820055304,2,2,2,1,441625.455962665,92,A
14,2,25/3/95,21,f,61,The museum visited Mary,Non-sensible,edin_semantics,sem_emo_sem_emo,1.49161601398373,2,2,2,1,441627.690582456,16,A
14,2,25/3/95,21,f,62,Josh taught the rules,Sensible,edin_semantics,sem_emo_sem_emo,3.37340569240041,2,2,2,1,441631.806950873,90,A
14,2,25/3/95,21,f,63,Lucy cut the ribbon,Sensible,edin_semantics,sem_emo_sem_emo,1.29157322976971,1,1,1,1,441633.84161223,95,A
14,2,25/3/95,21,f,64,Phil solved the problem,Sensible,edin_semantics,sem_emo_sem_emo,1.32721823954489,1,1,1,1,441635.911662981,109,A
14,2,25/3/95,21,f,65,The herbs chopped Phil,Non-sensible,edin_semantics,sem_emo_sem_emo,1.36237960105063,2,1,1,1,441638.016868037,27,A
14,2,25/3/95,21,f,66,The number dialed Tom,Non-sensible,edin_semantics,sem_emo_sem_emo,1.25620468205307,2,1,1,1,441640.016286569,63,A
14,2,25/3/95,21,f,67,The milk sniffed Phil,Non-sensible,edin_semantics,sem_emo_sem_emo,1.26810441928683,2,2,2,1,441642.027440949,18,A
14,2,25/3/95,21,f,68,Sam sucked the candy,Sensible,edin_semantics,sem_emo_sem_emo,1.12707731447881,2,1,1,1,441643.897478101,87,A
14,2,25/3/95,21,f,69,Ian dented the bowl,Sensible,edin_semantics,sem_emo_sem_emo,1.209434157121,2,2,2,1,441645.849834251,146,A
14,2,25/3/95,21,f,70,The wall punched Jane,Non-sensible,edin_semantics,sem_emo_sem_emo,1.20912369852886,2,2,2,1,441647.802159932,50,A
14,2,25/3/95,21,f,71,Kate hugged the pillow,Sensible,edin_semantics,sem_emo_sem_emo,1.55056851130212,2,2,2,1,441650.095610988,86,A
14,2,25/3/95,21,f,72,The jumper wore Joe,Non-sensible,edin_semantics,sem_emo_sem_emo,1.56202885980019,1,1,1,1,441652.400789232,25,A
14,2,25/3/95,21,f,73,Jay sold the bed,Sensible,edin_semantics,sem_emo_sem_emo,1.47989780525677,2,1,2,0,441654.623650403,113,A
14,2,25/3/95,21,f,74,Joe iced the donut,Sensible,edin_semantics,sem_emo_sem_emo,1.52677096106345,1,1,1,1,441656.893550864,119,A
14,2,25/3/95,21,f,75,Adam chewed the fat,Sensible,edin_semantics,sem_emo_sem_emo,1.77372667071177,1,2,2,1,441659.410458029,106,A
14,2,25/3/95,21,f,76,The lolly sucked Leah,Non-sensible,edin_semantics,sem_emo_sem_emo,1.1270259990124,1,2,2,1,441661.28046343,12,A
14,2,25/3/95,21,f,77,Eve typed the message,Sensible,edin_semantics,sem_emo_sem_emo,2.1033410220989,2,2,2,1,441664.126691807,124,A
14,2,25/3/95,21,f,78,The box lifted Kate,Non-sensible,edin_semantics,sem_emo_sem_emo,1.13882118096808,2,1,1,1,441666.008484051,69,A
14,2,25/3/95,21,f,79,Owen swallowed the gum,Sensible,edin_semantics,sem_emo_sem_emo,1.1150261965231,2,1,1,1,441667.86673853,97,A
14,2,25/3/95,21,f,80,The papers filed Lara,Non-sensible,edin_semantics,sem_emo_sem_emo,1.15043034439441,2,2,2,1,441669.760314731,24,A
14,2,25/3/95,21,f,81,The mirror kissed Max,Non-sensible,edin_semantics,sem_emo_sem_emo,1.33859936986119,2,1,1,1,441671.842025319,23,A
14,2,25/3/95,21,f,82,Bill trimmed the hair,Sensible,edin_semantics,sem_emo_sem_emo,1.19745007005986,1,1,1,1,441673.782708803,107,A
14,2,25/3/95,21,f,83,The room searched Jen,Non-sensible,edin_semantics,sem_emo_sem_emo,1.13863227586262,2,2,2,1,441675.664427602,10,A
14,2,25/3/95,21,f,84,The pen described John,Non-sensible,edin_semantics,sem_emo_sem_emo,1.25584932242054,1,2,2,1,441677.663830097,42,A
14,2,25/3/95,21,f,85,Max searched the internet,Sensible,edin_semantics,sem_emo_sem_emo,1.18533095909515,2,1,1,1,441679.592646878,85,A
14,2,25/3/95,21,f,86,The laptop fixed Jen,Non-sensible,edin_semantics,sem_emo_sem_emo,1.11539117782377,2,1,1,1,441681.450912261,37,A
14,2,25/3/95,21,f,87,The folder carried Dan,Non-sensible,edin_semantics,sem_emo_sem_emo,0.997454111173283,2,2,2,1,441683.191569317,30,A
14,2,25/3/95,21,f,88,The cake iced Mary,Non-sensible,edin_semantics,sem_emo_sem_emo,1.55027857882669,1,2,2,1,441685.485014599,44,A
14,2,25/3/95,21,f,89,The book read Sean,Non-sensible,edin_semantics,sem_emo_sem_emo,1.57398600626038,1,2,2,1,441687.80195884,4,A
14,2,25/3/95,21,f,90,The lever pulled Hugh,Non-sensible,edin_semantics,sem_emo_sem_emo,1.60900945746107,1,1,1,1,441690.154181826,45,A
14,2,25/3/95,21,f,91,The photo took Beth,Non-sensible,edin_semantics,sem_emo_sem_emo,1.83261951373424,1,1,1,1,441692.729879203,53,A
14,2,25/3/95,21,f,92,The ball squeezed Josh,Non-sensible,edin_semantics,sem_emo_sem_emo,1.95057037152583,1,1,1,1,441695.423354569,1,A
14,2,25/3/95,21,f,93,The letter typed Phil,Non-sensible,edin_semantics,sem_emo_sem_emo,1.47951229778118,1,1,1,1,441697.646059549,49,A
14,2,25/3/95,21,f,94,Tom grated the carrots,Sensible,edin_semantics,sem_emo_sem_emo,1.31490316771669,2,2,2,1,441699.704259312,140,A
14,2,25/3/95,21,f,95,The gun carried Ryan,Non-sensible,edin_semantics,sem_emo_sem_emo,1.27986400114605,1,1,1,1,441701.727185462,75,A
14,2,25/3/95,21,f,96,Lucy counted the shoes,Sensible,edin_semantics,sem_emo_sem_emo,1.3032551969518,2,1,1,1,441703.773656753,123,A
14,2,25/3/95,21,f,97,Rose built the shed,Sensible,edin_semantics,sem_emo_sem_emo,1.31500804371899,1,1,1,1,441705.831863573,121,A
14,2,25/3/95,21,f,98,The pill swallowed Luke,Non-sensible,edin_semantics,sem_emo_sem_emo,1.6913249270292,2,2,2,1,441708.266402349,22,A
14,2,25/3/95,21,f,99,The movie watched Ella,Non-sensible,edin_semantics,sem_emo_sem_emo,1.8209955971106,1,1,1,1,441710.830366765,33,A
14,2,25/3/95,21,f,100,The lorry dented Lily,Non-sensible,edin_semantics,sem_emo_sem_emo,1.53862226940691,2,1,1,1,441713.11206369,71,A
14,2,25/3/95,21,f,101,Tim took the ticket,Sensible,edin_semantics,sem_emo_sem_emo,1.52714524336625,2,2,2,1,441715.381910911,128,A
14,2,25/3/95,21,f,102,The towels passed Phil,Non-sensible,edin_semantics,sem_emo_sem_emo,1.31482587376377,1,1,1,1,441717.440124786,43,A
14,2,25/3/95,21,f,103,The floor cleaned Tim,Non-sensible,edin_semantics,sem_emo_sem_emo,1.45598287088797,1,1,1,1,441719.639483792,5,A
14,2,25/3/95,21,f,104,The spoon licked Will,Non-sensible,edin_semantics,sem_emo_sem_emo,1.5268065611599,2,1,2,0,441721.909542048,21,A
14,2,25/3/95,21,f,105,The fruits mixed Jack,Non-sensible,edin_semantics,sem_emo_sem_emo,1.45644727593753,2,2,2,1,441724.108750314,8,A
14,2,25/3/95,21,f,106,The table wiped Beth,Non-sensible,edin_semantics,sem_emo_sem_emo,1.99711029743776,2,2,2,1,441726.849086969,40,A
14,2,25/3/95,21,f,107,Luke read the poster,Sensible,edin_semantics,sem_emo_sem_emo,1.12688552291365,2,1,1,1,441728.719108086,79,A
14,2,25/3/95,21,f,108,Phil cancelled the party,Sensible,edin_semantics,sem_emo_sem_emo,1.20941138587659,1,2,2,1,441730.671456218,82,A
14,2,25/3/95,21,f,109,The cheese grated Andy,Non-sensible,edin_semantics,sem_emo_sem_emo,1.32674709940329,2,1,1,1,441732.74148548,65,A
14,2,25/3/95,21,f,110,Tom visited the hospital,Sensible,edin_semantics,sem_emo_sem_emo,2.20885717880446,1,1,1,1,441735.693488516,91,A
14,2,25/3/95,21,f,111,The shelf dusted Jake,Non-sensible,edin_semantics,sem_emo_sem_emo,1.25624156504637,1,1,1,1,441737.692870164,47,A
14,2,25/3/95,21,f,112,Alex wrote the report,Sensible,edin_semantics,sem_emo_sem_emo,1.52661990118213,2,1,1,1,441739.962778964,149,A
14,2,25/3/95,21,f,113,The bucket lent Max,Non-sensible,edin_semantics,sem_emo_sem_emo,1.33874144958099,2,1,1,1,441742.044498853,19,A
14,2,25/3/95,21,f,114,The room entered Ryan,Non-sensible,edin_semantics,sem_emo_sem_emo,1.35061841562856,2,2,2,1,441744.138006227,58,A
14,2,25/3/95,21,f,115,The plans cancelled Ian,Non-sensible,edin_semantics,sem_emo_sem_emo,1.11527475586627,1,1,1,1,441745.996249801,7,A
14,2,25/3/95,21,f,116,Ryan stroked the blanket,Sensible,edin_semantics,sem_emo_sem_emo,1.04465055448236,1,2,2,1,441747.783986879,116,A
14,2,25/3/95,21,f,117,The fur stroked Rob,Non-sensible,edin_semantics,sem_emo_sem_emo,1.03302439278923,1,1,1,1,441749.559904079,41,A
14,2,25/3/95,21,f,118,Amy lifted the crate,Sensible,edin_semantics,sem_emo_sem_emo,1.56182616367005,1,2,2,1,441751.865115999,144,A
14,2,25/3/95,21,f,119,Dan brushed the hair,Sensible,edin_semantics,sem_emo_sem_emo,1.15056472679134,1,1,1,1,441753.758684502,147,A
14,2,25/3/95,21,f,120,Emma pulled the rope,Sensible,edin_semantics,sem_emo_sem_emo,1.43268789158901,2,2,2,1,441755.934472387,120,A
14,2,25/3/95,21,f,121,Fred served the dessert,Sensible,edin_semantics,sem_emo_sem_emo,1.5740402082447,2,1,1,1,441758.251434267,145,A
14,2,25/3/95,21,f,122,The jar labeled Liz,Non-sensible,edin_semantics,sem_emo_sem_emo,1.47996740182862,2,1,1,1,441760.474303136,61,A
14,2,25/3/95,21,f,123,Eve ironed the trousers,Sensible,edin_semantics,sem_emo_sem_emo,1.77396560838679,1,2,1,0,441762.991185285,130,A
14,2,25/3/95,21,f,124,Liz weighed the sugar,Sensible,edin_semantics,sem_emo_sem_emo,1.13848185742972,2,1,1,1,441764.872956682,139,A
14,2,25/3/95,21,f,125,The lesson taught Eve,Non-sensible,edin_semantics,sem_emo_sem_emo,1.60934140445897,1,1,1,1,441767.225237078,15,A
14,2,25/3/95,21,f,126,Joe entered the office,Sensible,edin_semantics,sem_emo_sem_emo,1.47970184427686,2,1,1,1,441769.448066818,133,A
14,2,25/3/95,21,f,127,The garden watered Jeff,Non-sensible,edin_semantics,sem_emo_sem_emo,1.46780916285934,2,2,2,1,441771.659169369,54,A
14,2,25/3/95,21,f,128,The coins polished Jon,Non-sensible,edin_semantics,sem_emo_sem_emo,1.96204547316302,1,1,1,1,441774.364246201,29,A
14,2,25/3/95,21,f,129,Liam mixed the nuts,Sensible,edin_semantics,sem_emo_sem_emo,1.80909136973787,2,1,1,1,441776.916434678,83,A
14,2,25/3/95,21,f,130,Jay squeezed the lemon,Sensible,edin_semantics,sem_emo_sem_emo,1.19756649201736,1,2,2,1,441778.857042151,76,A
14,2,25/3/95,21,f,131,Tim sniffed the perfume,Sensible,edin_semantics,sem_emo_sem_emo,1.35035414085723,2,1,1,1,441780.950501737,93,A
14,2,25/3/95,21,f,132,Beth washed the pan,Sensible,edin_semantics,sem_emo_sem_emo,1.16226786159677,1,2,2,1,441782.855769848,132,A
14,2,25/3/95,21,f,133,Fred lent the car,Sensible,edin_semantics,sem_emo_sem_emo,1.17378978873603,2,2,2,1,441784.772869061,94,A
14,2,25/3/95,21,f,134,The sheets counted Bill,Non-sensible,edin_semantics,sem_emo_sem_emo,1.33828249678481,2,2,2,1,441786.854611401,48,A
14,2,25/3/95,21,f,135,Leo carried the wallet,Sensible,edin_semantics,sem_emo_sem_emo,1.42070765321841,2,2,2,1,441789.018702886,150,A
14,2,25/3/95,21,f,136,The story wrote Ewan,Non-sensible,edin_semantics,sem_emo_sem_emo,1.51514127152041,1,2,2,1,441791.276799505,74,A
14,2,25/3/95,21,f,137,The handle pulled Tim,Non-sensible,edin_semantics,sem_emo_sem_emo,1.31515621714061,1,1,1,1,441793.33504417,73,A
14,2,25/3/95,21,f,138,Jane licked the plate,Sensible,edin_semantics,sem_emo_sem_emo,1.63246960839024,1,2,2,1,441795.710806205,96,A
14,2,25/3/95,21,f,139,Leo passed the salt,Sensible,edin_semantics,sem_emo_sem_emo,1.32707615982508,1,2,2,1,441797.780712952,118,A
14,2,25/3/95,21,f,140,Luke watered the plants,Sensible,edin_semantics,sem_emo_sem_emo,2.20847455778858,2,1,1,1,441800.732819259,129,A
14,2,25/3/95,21,f,141,The tomato sliced Liz,Non-sensible,edin_semantics,sem_emo_sem_emo,1.26767497288529,2,1,1,1,441802.743974281,3,A
14,2,25/3/95,21,f,142,The trolley pushed Matt,Non-sensible,edin_semantics,sem_emo_sem_emo,1.60869964025915,2,2,1,0,441805.096200795,26,A
14,2,25/3/95,21,f,143,Tom whisked the cream,Sensible,edin_semantics,sem_emo_sem_emo,2.09088643628638,2,1,1,1,441807.930671514,137,A
14,2,25/3/95,21,f,144,Andy pulled the rope,Sensible,edin_semantics,sem_emo_sem_emo,1.76178588106995,2,2,2,1,441810.435786063,148,A
14,2,25/3/95,21,f,145,Hugh dialed the hotline,Sensible,edin_semantics,sem_emo_sem_emo,2.00931728613796,2,2,2,1,441813.187917259,138,A
14,2,25/3/95,21,f,146,The bushes trimmed Jon,Non-sensible,edin_semantics,sem_emo_sem_emo,2.396934157121,2,2,2,1,441816.328118826,32,A
14,2,25/3/95,21,f,147,Ryan knitted the socks,Sensible,edin_semantics,sem_emo_sem_emo,1.12711836682865,2,1,1,1,441818.198160789,141,A
14,2,25/3/95,21,f,148,The bill paid Mike,Non-sensible,edin_semantics,sem_emo_sem_emo,3.58504801843083,1,1,1,1,441822.526267428,59,A
14,2,25/3/95,21,f,149,The kettle got Lily,Non-sensible,edin_semantics,sem_emo_sem_emo,1.17360954318428,2,1,1,1,441824.443346757,13,A
14,2,25/3/95,21,f,150,The scarf knitted Tom,Non-sensible,edin_semantics,sem_emo_sem_emo,2.20907013799297,1,2,2,1,441827.395429652,66,A
14,2,25/3/95,21,f,151,Ryan entered the room,Sensible,edin_semantics,sem_emo_sem_emo,1.22552380268462,2,2,2,1,441832.323402293,58,B
14,2,25/3/95,21,f,152,Jeff watered the garden,Sensible,edin_semantics,sem_emo_sem_emo,1.42969716177322,2,2,2,1,441834.49917767,54,B
14,2,25/3/95,21,f,153,The steak ate Mike,Non-sensible,edin_semantics,sem_emo_sem_emo,0.785405430709943,2,2,2,1,441836.028095221,142,B
14,2,25/3/95,21,f,154,The car lent Fred,Non-sensible,edin_semantics,sem_emo_sem_emo,1.07940748590045,1,2,2,1,441837.851103347,94,B
14,2,25/3/95,21,f,155,Mark washed the dishes,Sensible,edin_semantics,sem_emo_sem_emo,1.40684509911807,1,1,2,0,441840.003411837,57,B
14,2,25/3/95,21,f,156,The radio fixed Luke,Non-sensible,edin_semantics,sem_emo_sem_emo,2.06749652337749,2,2,2,1,441842.814344471,112,B
14,2,25/3/95,21,f,157,Beth wiped the table,Sensible,edin_semantics,sem_emo_sem_emo,0.926836644881405,2,2,2,1,441844.484425434,40,B
14,2,25/3/95,21,f,158,The report filed Ian,Non-sensible,edin_semantics,sem_emo_sem_emo,1.70302357175387,1,1,1,1,441846.930763241,99,B
14,2,25/3/95,21,f,159,The internet searched Max,Non-sensible,edin_semantics,sem_emo_sem_emo,2.43173823464895,1,1,1,1,441850.106254458,85,B
14,2,25/3/95,21,f,160,Liz sliced the tomato,Sensible,edin_semantics,sem_emo_sem_emo,1.78499169973657,2,1,1,1,441852.634897151,3,B
14,2,25/3/95,21,f,161,Amy hugged the tree,Sensible,edin_semantics,sem_emo_sem_emo,1.87907637283206,2,1,1,1,441855.257623555,11,B
14,2,25/3/95,21,f,162,Matt kicked the bike,Sensible,edin_semantics,sem_emo_sem_emo,1.24427447619382,1,1,1,1,441857.245300144,39,B
14,2,25/3/95,21,f,163,Eve taught the lesson,Sensible,edin_semantics,sem_emo_sem_emo,1.57322942378232,1,1,1,1,441859.562231877,15,B
14,2,25/3/95,21,f,164,Max lent the bucket,Sensible,edin_semantics,sem_emo_sem_emo,2.7379261108581,2,1,1,1,441863.043534122,19,B
14,2,25/3/95,21,f,165,Kate served the dish,Sensible,edin_semantics,sem_emo_sem_emo,1.36145014956128,1,2,2,1,441865.148790494,70,B
14,2,25/3/95,21,f,166,The rope pulled Emma,Non-sensible,edin_semantics,sem_emo_sem_emo,1.2320864101639,1,2,2,1,441867.124669015,120,B
14,2,25/3/95,21,f,167,Lily got the kettle,Sensible,edin_semantics,sem_emo_sem_emo,1.06747118633939,2,1,1,1,441868.935900561,13,B
14,2,25/3/95,21,f,168,The radio got Ben,Non-sensible,edin_semantics,sem_emo_sem_emo,1.39711055404041,1,2,2,1,441871.076468071,88,B
14,2,25/3/95,21,f,169,Will mashed the potatoes,Sensible,edin_semantics,sem_emo_sem_emo,1.37360293627717,1,2,2,1,441873.193442652,28,B
14,2,25/3/95,21,f,170,The curtains measured Rob,Non-sensible,edin_semantics,sem_emo_sem_emo,1.76164187700488,1,2,2,1,441875.69857869,126,B
14,2,25/3/95,21,f,171,The crate lifted Amy,Non-sensible,edin_semantics,sem_emo_sem_emo,1.06763667875202,2,2,2,1,441877.50979003,144,B
14,2,25/3/95,21,f,172,The ticket took Tim,Non-sensible,edin_semantics,sem_emo_sem_emo,1.4793285242049,1,2,2,1,441879.73265505,128,B
14,2,25/3/95,21,f,173,The donut iced Joe,Non-sensible,edin_semantics,sem_emo_sem_emo,1.15001500974176,2,1,1,1,441881.626203348,119,B
14,2,25/3/95,21,f,174,Jack mixed the fruits,Sensible,edin_semantics,sem_emo_sem_emo,1.4907439717208,1,2,2,1,441883.860795877,8,B
14,2,25/3/95,21,f,175,The bed sold Jay,Non-sensible,edin_semantics,sem_emo_sem_emo,1.45523558929563,1,1,1,1,441886.060164184,113,B
14,2,25/3/95,21,f,176,Rob mailed the parcel,Sensible,edin_semantics,sem_emo_sem_emo,1.18578574247658,2,2,2,1,441887.98945467,14,B
14,2,25/3/95,21,f,177,Leo stored the wine,Sensible,edin_semantics,sem_emo_sem_emo,1.06602825946175,2,2,2,1,441889.800242658,52,B
14,2,25/3/95,21,f,178,The shoes counted Lucy,Non-sensible,edin_semantics,sem_emo_sem_emo,1.29103634163039,2,1,1,1,441891.83492422,123,B
14,2,25/3/95,21,f,179,Liz scrubbed the bowl,Sensible,edin_semantics,sem_emo_sem_emo,1.60856910655275,1,2,2,1,441894.187130529,56,B
14,2,25/3/95,21,f,180,The desk wiped Lucy,Non-sensible,edin_semantics,sem_emo_sem_emo,1.63203727558721,1,1,1,1,441896.562925598,115,B
14,2,25/3/95,21,f,181,Rob stroked the fur,Sensible,edin_semantics,sem_emo_sem_emo,1.60868616995867,1,1,1,1,441898.915209842,41,B
14,2,25/3/95,21,f,182,Mike paid the bill,Sensible,edin_semantics,sem_emo_sem_emo,1.59694326564204,1,1,1,1,441901.255594669,59,B
14,2,25/3/95,21,f,183,Sean read the book,Sensible,edin_semantics,sem_emo_sem_emo,1.66742250078823,1,2,2,1,441903.666667522,4,B
14,2,25/3/95,21,f,184,Will licked the spoon,Sensible,edin_semantics,sem_emo_sem_emo,1.46743552206317,1,1,1,1,441905.877770394,21,B
14,2,25/3/95,21,f,185,Matt pushed the trolley,Sensible,edin_semantics,sem_emo_sem_emo,1.11469264596235,2,2,2,1,441907.736049568,26,B
14,2,25/3/95,21,f,186,Matt drank the juice,Sensible,edin_semantics,sem_emo_sem_emo,1.31467641750351,2,2,2,1,441909.794227202,60,B
14,2,25/3/95,21,f,187,The cream whisked Tom,Non-sensible,edin_semantics,sem_emo_sem_emo,1.37354039552156,1,1,1,1,441911.911267531,137,B
14,2,25/3/95,21,f,188,Carl sold the sofa,Sensible,edin_semantics,sem_emo_sem_emo,1.09082485770341,2,2,2,1,441913.745974943,38,B
14,2,25/3/95,21,f,189,Lara filed the papers,Sensible,edin_semantics,sem_emo_sem_emo,2.33783701434731,1,2,2,1,441916.827451084,24,B
14,2,25/3/95,21,f,190,The pan washed Beth,Non-sensible,edin_semantics,sem_emo_sem_emo,1.96159453847213,2,2,2,1,441919.532520218,132,B
14,2,25/3/95,21,f,191,The plants watered Luke,Non-sensible,edin_semantics,sem_emo_sem_emo,1.09122640127316,2,1,1,1,441921.367229875,129,B
14,2,25/3/95,21,f,192,Ian cancelled the plans,Sensible,edin_semantics,sem_emo_sem_emo,1.70235550845973,1,1,1,1,441923.813565438,7,B
14,2,25/3/95,21,f,193,Dan whisked the eggs,Sensible,edin_semantics,sem_emo_sem_emo,1.73805921035819,1,2,2,1,441926.295171407,62,B
14,2,25/3/95,21,f,194,Jen searched the room,Sensible,edin_semantics,sem_emo_sem_emo,1.38507932086941,1,2,2,1,441928.423960413,10,B
14,2,25/3/95,21,f,195,Phil typed the letter,Sensible,edin_semantics,sem_emo_sem_emo,1.69059047428891,2,1,1,1,441930.858520036,49,B
14,2,25/3/95,21,f,196,The office entered Joe,Non-sensible,edin_semantics,sem_emo_sem_emo,1.74942815321265,1,1,1,1,441933.351863778,133,B
14,2,25/3/95,21,f,197,The bath cleaned Jack,Non-sensible,edin_semantics,sem_emo_sem_emo,1.1611305824481,2,2,2,1,441935.257194429,80,B
14,2,25/3/95,21,f,198,The plate licked Jane,Non-sensible,edin_semantics,sem_emo_sem_emo,1.45448028971441,2,2,2,1,441937.456541568,96,B
14,2,25/3/95,21,f,199,The hotline dialed Hugh,Non-sensible,edin_semantics,sem_emo_sem_emo,4.43023052194621,2,2,2,1,441942.631469277,138,B
14,2,25/3/95,21,f,200,Joe wore the jumper,Sensible,edin_semantics,sem_emo_sem_emo,2.32487600902095,2,1,1,1,441945.701152481,25,B
14,2,25/3/95,21,f,201,Mary iced the cake,Sensible,edin_semantics,sem_emo_sem_emo,1.86596783547429,1,2,2,1,441948.312111285,44,B
14,2,25/3/95,21,f,202,The church described Erin,Non-sensible,edin_semantics,sem_emo_sem_emo,1.92557043564739,1,1,1,1,441950.981891091,117,B
14,2,25/3/95,21,f,203,Phil sniffed the milk,Sensible,edin_semantics,sem_emo_sem_emo,1.87860843987437,1,2,2,1,441953.604592799,18,B
14,2,25/3/95,21,f,204,Lily dented the lorry,Sensible,edin_semantics,sem_emo_sem_emo,1.96148677601013,2,1,1,1,441956.309890288,71,B
14,2,25/3/95,21,f,205,The bowl dented Ian,Non-sensible,edin_semantics,sem_emo_sem_emo,1.92592226731358,2,2,2,1,441958.979501393,146,B
14,2,25/3/95,21,f,206,The ribbon cut Lucy,Non-sensible,edin_semantics,sem_emo_sem_emo,1.38409630884416,2,1,1,1,441961.108298417,95,B
14,2,25/3/95,21,f,207,Ben chewed the toffee,Sensible,edin_semantics,sem_emo_sem_emo,1.78391631989507,2,1,1,1,441963.63691417,31,B
14,2,25/3/95,21,f,208,The door kicked Max,Non-sensible,edin_semantics,sem_emo_sem_emo,1.52579596708529,1,2,2,1,441965.906873643,114,B
14,2,25/3/95,21,f,209,Erin posted the card,Sensible,edin_semantics,sem_emo_sem_emo,1.37250478513306,1,2,2,1,441968.023843093,36,B
14,2,25/3/95,21,f,210,The rice stored Fred,Non-sensible,edin_semantics,sem_emo_sem_emo,1.25484289770247,2,1,1,1,441970.023236287,127,B
14,2,25/3/95,21,f,211,The hair brushed Dan,Non-sensible,edin_semantics,sem_emo_sem_emo,1.34878196311183,1,1,1,1,441972.116773809,147,B
14,2,25/3/95,21,f,212,Hugh pulled the lever,Sensible,edin_semantics,sem_emo_sem_emo,1.16109947249061,2,1,1,1,441974.022052503,45,B
14,2,25/3/95,21,f,213,Kate lifted the box,Sensible,edin_semantics,sem_emo_sem_emo,1.16008759551914,2,1,1,1,441975.927378344,69,B
14,2,25/3/95,21,f,214,The nuts mixed Liam,Non-sensible,edin_semantics,sem_emo_sem_emo,0.949145725695416,2,1,1,1,441977.62097815,83,B
14,2,25/3/95,21,f,215,The dress wore Kate,Non-sensible,edin_semantics,sem_emo_sem_emo,1.26708163780859,2,2,2,1,441979.632141189,100,B
14,2,25/3/95,21,f,216,The fat chewed Adam,Non-sensible,edin_semantics,sem_emo_sem_emo,1.24302654806525,2,2,2,1,441981.619756842,106,B
14,2,25/3/95,21,f,217,The blanket stroked Ryan,Non-sensible,edin_semantics,sem_emo_sem_emo,1.65410517359851,2,2,2,1,441984.019039964,116,B
14,2,25/3/95,21,f,218,Phil passed the towels,Sensible,edin_semantics,sem_emo_sem_emo,1.73636483756127,1,1,1,1,441986.500673516,43,B
14,2,25/3/95,21,f,219,The lemon squeezed Jay,Non-sensible,edin_semantics,sem_emo_sem_emo,3.20783760451013,1,2,2,1,441990.452406503,76,B
14,2,25/3/95,21,f,220,The socks knitted Ryan,Non-sensible,edin_semantics,sem_emo_sem_emo,1.78445930173621,1,1,1,1,441992.981073571,141,B
14,2,25/3/95,21,f,221,Jake dusted the shelf,Sensible,edin_semantics,sem_emo_sem_emo,1.54924713791115,2,1,1,1,441995.274484536,47,B
14,2,25/3/95,21,f,222,Phil chopped the herbs,Sensible,edin_semantics,sem_emo_sem_emo,1.47841703315498,1,1,1,1,441997.497321974,27,B
14,2,25/3/95,21,f,223,Bill counted the sheets,Sensible,edin_semantics,sem_emo_sem_emo,1.40870913362596,1,2,2,1,441999.64965516,48,B
14,2,25/3/95,21,f,224,Tom knitted the scarf,Sensible,edin_semantics,sem_emo_sem_emo,1.58473595627584,2,2,2,1,442001.978402921,66,B
14,2,25/3/95,21,f,225,The pillow hugged Kate,Non-sensible,edin_semantics,sem_emo_sem_emo,1.92620514385635,2,2,2,1,442004.648155145,86,B
14,2,25/3/95,21,f,226,The gift posted Jack,Non-sensible,edin_semantics,sem_emo_sem_emo,1.76099401916144,2,1,1,1,442007.153295031,111,B
14,2,25/3/95,21,f,227,Tim cleaned the floor,Sensible,edin_semantics,sem_emo_sem_emo,9.05261439504102,1,1,1,1,442016.950343301,5,B
14,2,25/3/95,21,f,228,The hedge jumped Sara,Non-sensible,edin_semantics,sem_emo_sem_emo,1.30183119262801,1,2,2,1,442018.996806253,92,B
14,2,25/3/95,21,f,229,The party cancelled Phil,Non-sensible,edin_semantics,sem_emo_sem_emo,1.34845546842553,1,2,2,1,442021.090286045,82,B
14,2,25/3/95,21,f,230,Kate built the house,Sensible,edin_semantics,sem_emo_sem_emo,1.16058727988275,2,2,2,1,442022.995588794,46,B
14,2,25/3/95,21,f,231,The report wrote Alex,Non-sensible,edin_semantics,sem_emo_sem_emo,1.19564601051388,2,1,1,1,442024.936217113,149,B
14,2,25/3/95,21,f,232,Joe solved the puzzle,Sensible,edin_semantics,sem_emo_sem_emo,0.936813976266421,2,2,2,1,442026.618055092,34,B
14,2,25/3/95,21,f,233,The carrots chopped Fred,Non-sensible,edin_semantics,sem_emo_sem_emo,1.19546095404075,1,2,2,1,442028.558602911,102,B
14,2,25/3/95,21,f,234,The shed built Rose,Non-sensible,edin_semantics,sem_emo_sem_emo,0.937396086170338,2,1,1,1,442030.240492526,121,B
14,2,25/3/95,21,f,235,The sugar weighed Liz,Non-sensible,edin_semantics,sem_emo_sem_emo,0.878712674370036,2,1,1,1,442031.863539331,139,B
14,2,25/3/95,21,f,236,The poster read Luke,Non-sensible,edin_semantics,sem_emo_sem_emo,1.51377788354876,1,1,1,1,442034.121679568,79,B
14,2,25/3/95,21,f,237,The kettle carried John,Non-sensible,edin_semantics,sem_emo_sem_emo,0.995261657575611,2,1,1,1,442035.862314495,105,B
14,2,25/3/95,21,f,238,The rules taught Josh,Non-sensible,edin_semantics,sem_emo_sem_emo,0.996258781349752,1,2,2,1,442037.602969306,90,B
14,2,25/3/95,21,f,239,Jen weighed the flour,Sensible,edin_semantics,sem_emo_sem_emo,1.03189609386027,1,2,2,1,442039.37892403,64,B
14,2,25/3/95,21,f,240,Luke swallowed the pill,Sensible,edin_semantics,sem_emo_sem_emo,2.01969199167797,1,2,2,1,442042.142804224,22,B
14,2,25/3/95,21,f,241,Tim pulled the handle,Sensible,edin_semantics,sem_emo_sem_emo,0.961064064817037,2,1,1,1,442043.848166819,73,B
14,2,25/3/95,21,f,242,Jon polished the coins,Sensible,edin_semantics,sem_emo_sem_emo,0.820675837632734,2,1,1,1,442045.412408979,29,B
14,2,25/3/95,21,f,243,The trophy polished Anna,Non-sensible,edin_semantics,sem_emo_sem_emo,2.32642926421249,2,2,2,1,442048.482096032,104,B
14,2,25/3/95,21,f,244,The candy sucked Sam,Non-sensible,edin_semantics,sem_emo_sem_emo,1.19689778727479,2,1,1,1,442050.42263936,87,B
14,2,25/3/95,21,f,245,Amy measured the thread,Sensible,edin_semantics,sem_emo_sem_emo,1.65542301908135,1,1,1,1,442052.821970912,51,B
14,2,25/3/95,21,f,246,The dessert served Fred,Non-sensible,edin_semantics,sem_emo_sem_emo,0.996648778906092,2,1,1,1,442054.562570879,145,B
14,2,25/3/95,21,f,247,The perfume sniffed Tim,Non-sensible,edin_semantics,sem_emo_sem_emo,1.90263562678592,1,1,1,1,442057.208873536,93,B
14,2,25/3/95,21,f,248,Tim ate the ham,Sensible,edin_semantics,sem_emo_sem_emo,1.57331313210307,2,1,1,1,442059.525835416,67,B
14,2,25/3/95,21,f,249,The hair trimmed Bill,Non-sensible,edin_semantics,sem_emo_sem_emo,1.20877218752867,2,1,1,1,442061.478180661,107,B
14,2,25/3/95,21,f,250,The debt paid Zoe,Non-sensible,edin_semantics,sem_emo_sem_emo,2.37325463251909,2,2,2,1,442064.594908286,134,B
14,2,25/3/95,21,f,251,Sam tidied the room,Sensible,edin_semantics,sem_emo_sem_emo,1.6086868114071,2,2,2,1,442066.947178419,2,B
14,2,25/3/95,21,f,252,Jane punched the wall,Sensible,edin_semantics,sem_emo_sem_emo,1.1956238806597,2,2,2,1,442068.887744518,50,B
14,2,25/3/95,21,f,253,The sweets offered Tom,Non-sensible,edin_semantics,sem_emo_sem_emo,1.3135128391441,1,2,2,1,442070.945940112,84,B
14,2,25/3/95,21,f,254,Jon jumped the fence,Sensible,edin_semantics,sem_emo_sem_emo,1.79661914426833,2,1,1,1,442073.486347519,17,B
14,2,25/3/95,21,f,255,Andy grated the cheese,Sensible,edin_semantics,sem_emo_sem_emo,1.45554925518809,1,1,1,1,442075.685681508,65,B
14,2,25/3/95,21,f,256,Ryan carried the gun,Sensible,edin_semantics,sem_emo_sem_emo,2.76099113270175,1,1,1,1,442079.190546856,75,B
14,2,25/3/95,21,f,257,The pot scrubbed Josh,Non-sensible,edin_semantics,sem_emo_sem_emo,1.71427994128317,2,1,1,1,442081.648590685,131,B
14,2,25/3/95,21,f,258,Liz labeled the jar,Sensible,edin_semantics,sem_emo_sem_emo,2.09051600273233,1,1,1,1,442084.48306846,61,B
14,2,25/3/95,21,f,259,The gum swallowed Owen,Non-sensible,edin_semantics,sem_emo_sem_emo,1.15011347137624,1,1,1,1,442086.376615155,97,B
14,2,25/3/95,21,f,260,Ryan painted the picture,Sensible,edin_semantics,sem_emo_sem_emo,1.25551737542264,1,1,1,1,442088.376000972,35,B
14,2,25/3/95,21,f,261,The problem solved Phil,Non-sensible,edin_semantics,sem_emo_sem_emo,0.702895924507175,1,1,1,1,442089.82261877,109,B
14,2,25/3/95,21,f,262,The beer drank Jack,Non-sensible,edin_semantics,sem_emo_sem_emo,1.03210360079538,2,1,2,0,442091.598542063,135,B
14,2,25/3/95,21,f,263,The turnip mashed Ella,Non-sensible,edin_semantics,sem_emo_sem_emo,1.00876596552553,1,1,1,1,442093.350997829,103,B
14,2,25/3/95,21,f,264,The rope pulled Andy,Non-sensible,edin_semantics,sem_emo_sem_emo,1.27915488544386,2,2,2,1,442095.373925903,148,B
14,2,25/3/95,21,f,265,The garage tidied Erin,Non-sensible,edin_semantics,sem_emo_sem_emo,1.50263088010252,1,1,1,1,442097.620299503,77,B
14,2,25/3/95,21,f,266,Jon cut the paper,Sensible,edin_semantics,sem_emo_sem_emo,1.4202307399828,1,2,2,1,442099.7843695,20,B
14,2,25/3/95,21,f,267,The box labeled Ian,Non-sensible,edin_semantics,sem_emo_sem_emo,1.45585362002021,2,2,2,1,442101.983679114,136,B
14,2,25/3/95,21,f,268,The invite mailed Ian,Non-sensible,edin_semantics,sem_emo_sem_emo,1.97311646561138,2,1,1,1,442104.700562674,89,B
14,2,25/3/95,21,f,269,Max kissed the mirror,Sensible,edin_semantics,sem_emo_sem_emo,1.44415176805342,1,1,1,1,442106.88817172,23,B
14,2,25/3/95,21,f,270,Luke climbed the hill,Sensible,edin_semantics,sem_emo_sem_emo,1.15000410529319,1,2,2,1,442108.781684738,68,B
14,2,25/3/95,21,f,271,The ice crushed Josh,Non-sensible,edin_semantics,sem_emo_sem_emo,1.54952039278578,2,1,1,1,442111.075068763,81,B
14,2,25/3/95,21,f,272,The stairs climbed Ben,Non-sensible,edin_semantics,sem_emo_sem_emo,1.43193387490464,1,1,1,1,442113.250965693,143,B
14,2,25/3/95,21,f,273,John described the pen,Sensible,edin_semantics,sem_emo_sem_emo,1.31401925871614,1,2,2,1,442115.309124083,42,B
14,2,25/3/95,21,f,274,Jen fixed the laptop,Sensible,edin_semantics,sem_emo_sem_emo,0.925708666618448,1,1,1,1,442116.979208254,37,B
14,2,25/3/95,21,f,275,The rose kissed Hugh,Non-sensible,edin_semantics,sem_emo_sem_emo,1.21980084467214,1,2,2,1,442118.943330079,98,B
14,2,25/3/95,21,f,276,Matt offered the money,Sensible,edin_semantics,sem_emo_sem_emo,1.27885918004904,1,1,1,1,442120.966265529,9,B
14,2,25/3/95,21,f,277,The message typed Eve,Non-sensible,edin_semantics,sem_emo_sem_emo,1.32564253383316,2,2,2,1,442123.036272662,124,B
14,2,25/3/95,21,f,278,Carl brushed the teeth,Sensible,edin_semantics,sem_emo_sem_emo,1.50221650768071,2,2,2,1,442125.28257891,72,B
14,2,25/3/95,21,f,279,The monitor punched Erin,Non-sensible,edin_semantics,sem_emo_sem_emo,1.38489554735133,2,1,1,1,442127.411351239,125,B
14,2,25/3/95,21,f,280,The onion sliced Liam,Non-sensible,edin_semantics,sem_emo_sem_emo,1.13776119577233,2,2,2,1,442129.293170103,78,B
14,2,25/3/95,21,f,281,The carrots grated Tom,Non-sensible,edin_semantics,sem_emo_sem_emo,1.58510606904747,1,2,2,1,442131.621868153,140,B
14,2,25/3/95,21,f,282,Jon trimmed the bushes,Sensible,edin_semantics,sem_emo_sem_emo,1.1380357335438,2,2,2,1,442133.503658472,32,B
14,2,25/3/95,21,f,283,Erin crushed the garlic,Sensible,edin_semantics,sem_emo_sem_emo,1.35006549139507,1,2,2,1,442135.59714949,6,B
14,2,25/3/95,21,f,284,Leah sucked the lolly,Sensible,edin_semantics,sem_emo_sem_emo,1.31473254377488,2,2,2,1,442137.655366572,12,B
14,2,25/3/95,21,f,285,The opera watched Adam,Non-sensible,edin_semantics,sem_emo_sem_emo,1.17296008166159,1,2,2,1,442139.572459692,108,B
14,2,25/3/95,21,f,286,Josh ironed the shirt,Sensible,edin_semantics,sem_emo_sem_emo,1.97295193537138,2,1,1,1,442142.289239017,55,B
14,2,25/3/95,21,f,287,Ewan wrote the story,Sensible,edin_semantics,sem_emo_sem_emo,2.3494731184328,1,2,2,1,442145.382446196,74,B
14,2,25/3/95,21,f,288,The salt passed Leo,Non-sensible,edin_semantics,sem_emo_sem_emo,1.71425235917559,2,2,2,1,442147.840527228,118,B
14,2,25/3/95,21,f,289,Dan carried the folder,Sensible,edin_semantics,sem_emo_sem_emo,1.04393085493939,2,2,2,1,442149.628234158,30,B
14,2,25/3/95,21,f,290,The wallet carried Leo,Non-sensible,edin_semantics,sem_emo_sem_emo,1.1496073724702,2,2,2,1,442151.52179304,150,B
14,2,25/3/95,21,f,291,Mary visited the museum,Sensible,edin_semantics,sem_emo_sem_emo,1.29023389593931,1,2,2,1,442153.556491279,16,B
14,2,25/3/95,21,f,292,Ella watched the movie,Sensible,edin_semantics,sem_emo_sem_emo,1.20843093964504,1,1,1,1,442155.508823375,33,B
14,2,25/3/95,21,f,293,The trousers ironed Eve,Non-sensible,edin_semantics,sem_emo_sem_emo,1.05510383687215,2,2,2,1,442157.308285396,130,B
14,2,25/3/95,21,f,294,Beth took the photo,Sensible,edin_semantics,sem_emo_sem_emo,0.973399662820157,1,1,1,1,442159.025424571,53,B
14,2,25/3/95,21,f,295,Tom dialed the number,Sensible,edin_semantics,sem_emo_sem_emo,1.12645479361527,1,1,1,1,442160.895453385,63,B
14,2,25/3/95,21,f,296,The house dusted Alex,Non-sensible,edin_semantics,sem_emo_sem_emo,1.9026292123599,1,2,2,1,442163.541721082,122,B
14,2,25/3/95,21,f,297,The button pushed Ian,Non-sensible,edin_semantics,sem_emo_sem_emo,1.05579050199594,2,1,1,1,442165.341153277,101,B
14,2,25/3/95,21,f,298,The portrait painted Jay,Non-sensible,edin_semantics,sem_emo_sem_emo,1.11420771479607,2,2,2,1,442167.199443997,110,B
14,2,25/3/95,21,f,299,The hospital visited Tom,Non-sensible,edin_semantics,sem_emo_sem_emo,1.12604619417107,1,1,1,1,442169.069468,91,B
14,2,25/3/95,21,f,300,Josh squeezed the ball,Sensible,edin_semantics,sem_emo_sem_emo,1.3021682711551,2,1,1,1,442171.115908502,1,B
