subject_column,AssignedList_column,subject_dob_column,subject_age_column,subject_gender_column,trialnum_column,Stim_column,Type_column,Experiment_column,OrderGroup_column,ReactionTime_column,StimSide_column,StimPosition_column,Response_column,Valid_column,TrialEndSecs_column
15,3,17/9/96,19,f,1,I lit the rain,Sklar_violation,sklar_semantics,emo_sem_emo_sem,4.07176308421185,1,1,1,1,450069.052242679
15,3,17/9/96,19,f,2,I folded the vest,Sklar_control_B,sklar_semantics,emo_sem_emo_sem,1.40673188434448,1,2,2,1,450071.204486063
15,3,17/9/96,19,f,3,I lifted the hammer,Sklar_control_A,sklar_semantics,emo_sem_emo_sem,1.43030460859882,1,1,1,1,450073.380342903
15,3,17/9/96,19,f,4,I photographed the river,Sklar_control_A,sklar_semantics,emo_sem_emo_sem,1.19600233226083,1,2,2,1,450075.320987258
15,3,17/9/96,19,f,5,I spread the glue,Sklar_control_A,sklar_semantics,emo_sem_emo_sem,1.02145403670147,2,1,1,1,450077.085131406
15,3,17/9/96,19,f,6,I laundered the refrigerator,Sklar_violation,sklar_semantics,emo_sem_emo_sem,0.926819967397023,2,2,2,1,450078.755243479
15,3,17/9/96,19,f,7,I cut the string,Sklar_control_B,sklar_semantics,emo_sem_emo_sem,1.73889853904257,2,2,2,1,450081.236832771
15,3,17/9/96,19,f,8,I wiped the steam ,Sklar_control_A,sklar_semantics,emo_sem_emo_sem,1.12710682087345,1,2,2,1,450083.106842982
15,3,17/9/96,19,f,9,I met the woman,Sklar_filler,sklar_semantics,emo_sem_emo_sem,2.09150895714993,2,1,1,1,450085.941280026
15,3,17/9/96,19,f,10,I fried the squash,Sklar_control_B,sklar_semantics,emo_sem_emo_sem,2.62083959806478,1,1,1,1,450089.304996395
15,3,17/9/96,19,f,11,I changed the sock,Sklar_filler,sklar_semantics,emo_sem_emo_sem,1.49161890050163,2,1,1,1,450091.53964473
15,3,17/9/96,19,f,12,I locked the cabinet,Sklar_control_B,sklar_semantics,emo_sem_emo_sem,2.07977342937374,2,2,2,1,450094.362293327
15,3,17/9/96,19,f,13,I heard the sound,Sklar_filler,sklar_semantics,emo_sem_emo_sem,1.53893048292957,1,2,2,1,450096.643990253
15,3,17/9/96,19,f,14,I moved the chair,Sklar_control_A,sklar_semantics,emo_sem_emo_sem,1.2567675486207,2,1,1,1,450098.643367732
15,3,17/9/96,19,f,15,I broke the water,Sklar_violation,sklar_semantics,emo_sem_emo_sem,3.27962057344848,2,2,2,1,450102.665680661
15,3,17/9/96,19,f,16,I threw the bread,Sklar_filler,sklar_semantics,emo_sem_emo_sem,0.938958321581595,2,1,1,1,450104.347541412
15,3,17/9/96,19,f,17,I crumpled the river,Sklar_violation,sklar_semantics,emo_sem_emo_sem,2.36223687994061,1,2,2,1,450107.452526453
15,3,17/9/96,19,f,18,I washed the cup,Sklar_filler,sklar_semantics,emo_sem_emo_sem,3.12641630700091,1,2,2,1,450111.321909654
15,3,17/9/96,19,f,19,I laundered the scarf,Sklar_control_B,sklar_semantics,emo_sem_emo_sem,1.22129412484355,2,2,2,1,450113.286027952
15,3,17/9/96,19,f,20,I cooked the tomatoes,Sklar_filler,sklar_semantics,emo_sem_emo_sem,1.103133835888,2,1,1,1,450115.132517717
15,3,17/9/96,19,f,21,I prepared the stew,Sklar_filler,sklar_semantics,emo_sem_emo_sem,1.13903574377764,2,1,1,1,450117.014348768
15,3,17/9/96,19,f,22,I swallowed the food,Sklar_control_B,sklar_semantics,emo_sem_emo_sem,1.14993547083577,2,2,2,1,450118.907880068
15,3,17/9/96,19,f,23,I cleaned the house,Sklar_filler,sklar_semantics,emo_sem_emo_sem,2.43246980081312,1,2,2,1,450122.083397585
15,3,17/9/96,19,f,24,I wiped the juice,Sklar_control_A,sklar_semantics,emo_sem_emo_sem,1.23266916145803,1,2,2,1,450124.059302405
15,3,17/9/96,19,f,25,I crumpled the paper,Sklar_control_B,sklar_semantics,emo_sem_emo_sem,1.18593263305957,2,2,2,1,450125.988072681
15,3,17/9/96,19,f,26,I photographed the moon,Sklar_control_A,sklar_semantics,emo_sem_emo_sem,2.13831764791394,1,1,1,1,450128.86960514
15,3,17/9/96,19,f,27,I liked the dance,Sklar_control_A,sklar_semantics,emo_sem_emo_sem,1.1154630195233,1,2,2,1,450130.727879824
15,3,17/9/96,19,f,28,I sold the diamond,Sklar_control_A,sklar_semantics,emo_sem_emo_sem,1.04498282214627,1,2,2,1,450132.515564945
15,3,17/9/96,19,f,29,I turned off the computer,Sklar_control_B,sklar_semantics,emo_sem_emo_sem,1.53834933519829,2,2,2,1,450134.797272454
15,3,17/9/96,19,f,30,I looked for the paint,Sklar_control_A,sklar_semantics,emo_sem_emo_sem,1.13917301269248,1,2,2,1,450136.679031343
15,3,17/9/96,19,f,31,I gathered the dice,Sklar_control_B,sklar_semantics,emo_sem_emo_sem,1.35080796206603,2,1,1,1,450138.772556036
15,3,17/9/96,19,f,32,I locked the ground,Sklar_violation,sklar_semantics,emo_sem_emo_sem,1.29188400908606,1,2,2,1,450140.807192697
15,3,17/9/96,19,f,33,I turned up the volume,Sklar_control_B,sklar_semantics,emo_sem_emo_sem,0.9035856044502,1,2,2,1,450142.453780154
15,3,17/9/96,19,f,34,I washed the floor,Sklar_control_B,sklar_semantics,emo_sem_emo_sem,1.15046915167477,2,2,2,1,450144.347324924
15,3,17/9/96,19,f,35,I painted the building,Sklar_filler,sklar_semantics,emo_sem_emo_sem,2.16240962059237,1,1,1,1,450147.252331647
15,3,17/9/96,19,f,36,I wore the way,Sklar_violation,sklar_semantics,emo_sem_emo_sem,1.19796963920817,1,2,2,1,450149.192925328
15,3,17/9/96,19,f,37,I scrubbed the thunder,Sklar_violation,sklar_semantics,emo_sem_emo_sem,0.962524952134117,2,1,1,1,450150.898313581
15,3,17/9/96,19,f,38,I liked the scarf,Sklar_filler,sklar_semantics,emo_sem_emo_sem,1.0803651608876,1,2,2,1,450152.721289635
15,3,17/9/96,19,f,39,I sweetened the juice,Sklar_filler,sklar_semantics,emo_sem_emo_sem,1.76242379652103,1,2,2,1,450155.226434332
15,3,17/9/96,19,f,40,I smelled the melody,Sklar_violation,sklar_semantics,emo_sem_emo_sem,1.58549221802969,2,2,2,1,450157.555101592
15,3,17/9/96,19,f,41,I moved the hat,Sklar_control_A,sklar_semantics,emo_sem_emo_sem,1.4566621594131,2,1,1,1,450159.75446605
15,3,17/9/96,19,f,42,I broke the border,Sklar_control_B,sklar_semantics,emo_sem_emo_sem,2.38565726141678,1,1,1,1,450162.882955502
15,3,17/9/96,19,f,43,I burnt the stew,Sklar_control_B,sklar_semantics,emo_sem_emo_sem,1.02116153854877,2,1,1,1,450164.64712659
15,3,17/9/96,19,f,44,I drank the chair,Sklar_violation,sklar_semantics,emo_sem_emo_sem,1.26821186108282,2,1,1,1,450166.658235428
15,3,17/9/96,19,f,45,I smelled the smoke,Sklar_control_A,sklar_semantics,emo_sem_emo_sem,3.00940291886218,1,2,2,1,450170.410088558
15,3,17/9/96,19,f,46,I planted the hammer,Sklar_violation,sklar_semantics,emo_sem_emo_sem,1.1624131485587,2,1,1,1,450172.315361158
15,3,17/9/96,19,f,47,I cooked the stairs,Sklar_violation,sklar_semantics,emo_sem_emo_sem,1.26857972884318,2,1,1,1,450174.326582248
15,3,17/9/96,19,f,48,I cooked the rice,Sklar_control_A,sklar_semantics,emo_sem_emo_sem,1.31537911872147,1,1,1,1,450176.384853854
15,3,17/9/96,19,f,49,I closed the door,Sklar_control_A,sklar_semantics,emo_sem_emo_sem,1.82136538927443,1,2,2,1,450178.948706978
15,3,17/9/96,19,f,50,I drew the map,Sklar_filler,sklar_semantics,emo_sem_emo_sem,1.47986861958634,1,2,2,1,450181.171591562
15,3,17/9/96,19,f,51,I cut the bread,Sklar_control_B,sklar_semantics,emo_sem_emo_sem,1.77450794872129,1,1,1,1,450183.688478843
15,3,17/9/96,19,f,52,I tied the chasm,Sklar_violation,sklar_semantics,emo_sem_emo_sem,1.1746685662074,2,1,1,1,450185.605565227
15,3,17/9/96,19,f,53,I imagined the border,Sklar_filler,sklar_semantics,emo_sem_emo_sem,1.47984937625006,1,1,1,1,450187.828375403
15,3,17/9/96,19,f,54,I sewed the sock,Sklar_control_B,sklar_semantics,emo_sem_emo_sem,1.78577939223032,2,2,2,1,450190.357052734
15,3,17/9/96,19,f,55,I played the melody,Sklar_control_A,sklar_semantics,emo_sem_emo_sem,1.37405034305993,1,2,2,1,450192.474067085
15,3,17/9/96,19,f,56,I threw the peas,Sklar_control_A,sklar_semantics,emo_sem_emo_sem,2.45640494063264,1,2,2,1,450195.673116915
15,3,17/9/96,19,f,57,I found the exercise,Sklar_filler,sklar_semantics,emo_sem_emo_sem,1.16282206878532,1,1,1,1,450197.578429285
15,3,17/9/96,19,f,58,I cleaned the floor,Sklar_filler,sklar_semantics,emo_sem_emo_sem,1.22125531756319,2,1,1,1,450199.542534112
15,3,17/9/96,19,f,59,I planted the plant,Sklar_control_B,sklar_semantics,emo_sem_emo_sem,1.04513324063737,2,1,1,1,450201.330269265
15,3,17/9/96,19,f,60,I closed the cabinet,Sklar_filler,sklar_semantics,emo_sem_emo_sem,1.87990126898512,1,1,1,1,450203.953006253
15,3,17/9/96,19,f,61,I sweetened the chocolate milk ,Sklar_filler,sklar_semantics,emo_sem_emo_sem,1.02108360320563,2,1,1,1,450205.717140137
15,3,17/9/96,19,f,62,I ironed the clothes,Sklar_control_B,sklar_semantics,emo_sem_emo_sem,1.15113432850922,2,1,1,1,450207.610696774
15,3,17/9/96,19,f,63,I saw the light,Sklar_filler,sklar_semantics,emo_sem_emo_sem,2.59702120098518,1,1,1,1,450210.950886282
15,3,17/9/96,19,f,64,I imagined the well,Sklar_filler,sklar_semantics,emo_sem_emo_sem,1.48026535229292,2,2,2,1,450213.173788506
15,3,17/9/96,19,f,65,I fixed up the shower,Sklar_control_A,sklar_semantics,emo_sem_emo_sem,1.30389952688711,2,1,1,1,450215.220195332
15,3,17/9/96,19,f,66,I gathered the shower,Sklar_violation,sklar_semantics,emo_sem_emo_sem,2.71459072059952,2,1,1,1,450218.678012411
15,3,17/9/96,19,f,67,I folded the diamond,Sklar_violation,sklar_semantics,emo_sem_emo_sem,1.99790119723184,1,2,2,1,450221.418341689
15,3,17/9/96,19,f,68,I watered the plant,Sklar_filler,sklar_semantics,emo_sem_emo_sem,1.72696416382678,2,2,2,1,450223.888208923
15,3,17/9/96,19,f,69,I dug the paint,Sklar_violation,sklar_semantics,emo_sem_emo_sem,2.75014272116823,1,2,2,1,450227.381278448
15,3,17/9/96,19,f,70,I cut the wine,Sklar_violation,sklar_semantics,emo_sem_emo_sem,1.82145711564226,1,1,1,1,450229.945209188
15,3,17/9/96,19,f,71,I sold the string,Sklar_filler,sklar_semantics,emo_sem_emo_sem,1.30361312237801,1,2,2,1,450231.991624673
15,3,17/9/96,19,f,72,I coloured the paper,Sklar_filler,sklar_semantics,emo_sem_emo_sem,1.26806240476435,1,2,2,1,450234.002797976
15,3,17/9/96,19,f,73,I found the key,Sklar_control_A,sklar_semantics,emo_sem_emo_sem,1.45643669209676,2,1,1,1,450236.20212972
15,3,17/9/96,19,f,74,I met the child,Sklar_filler,sklar_semantics,emo_sem_emo_sem,1.44460302352672,1,2,2,1,450238.389751274
15,3,17/9/96,19,f,75,I fixed the gloves,Sklar_filler,sklar_semantics,emo_sem_emo_sem,1.17451494053239,2,1,1,1,450240.306778004
15,3,17/9/96,19,f,76,I baked the pie,Sklar_filler,sklar_semantics,emo_sem_emo_sem,1.57430480362382,1,2,2,1,450242.623765542
15,3,17/9/96,19,f,77,I saw the clouds,Sklar_control_A,sklar_semantics,emo_sem_emo_sem,1.13872336084023,2,1,1,1,450244.505555221
15,3,17/9/96,19,f,78,I drank the chocolate milk,Sklar_control_B,sklar_semantics,emo_sem_emo_sem,1.84480212751077,1,1,1,1,450247.093011218
15,3,17/9/96,19,f,79,I built the building,Sklar_control_B,sklar_semantics,emo_sem_emo_sem,2.50310298247496,1,1,1,1,450250.339090716
15,3,17/9/96,19,f,80,I scrubbed the house,Sklar_control_B,sklar_semantics,emo_sem_emo_sem,1.12709591630846,2,1,1,1,450252.209108304
15,3,17/9/96,19,f,81,I smelled the hair,Sklar_filler,sklar_semantics,emo_sem_emo_sem,1.16249236679869,2,1,1,1,450254.114455953
15,3,17/9/96,19,f,82,I bought the clothes,Sklar_filler,sklar_semantics,emo_sem_emo_sem,1.07990235951729,2,2,2,1,450255.937412443
15,3,17/9/96,19,f,83,I smelled the pie,Sklar_control_B,sklar_semantics,emo_sem_emo_sem,1.32764640304958,2,2,2,1,450258.007823364
15,3,17/9/96,19,f,84,I solved the peas,Sklar_violation,sklar_semantics,emo_sem_emo_sem,2.40726748958696,1,2,2,1,450261.159366613
15,3,17/9/96,19,f,85,I tied the shoelace,Sklar_control_B,sklar_semantics,emo_sem_emo_sem,2.56233162112767,1,1,1,1,450264.464288601
15,3,17/9/96,19,f,86,I shaved the head,Sklar_control_B,sklar_semantics,emo_sem_emo_sem,4.52631329122232,1,1,1,1,450269.733265704
15,3,17/9/96,19,f,87,I spilled the moon,Sklar_violation,sklar_semantics,emo_sem_emo_sem,2.32717173494166,2,1,1,1,450272.802926457
15,3,17/9/96,19,f,88,I broke the glass,Sklar_control_B,sklar_semantics,emo_sem_emo_sem,2.89026667369762,1,2,2,1,450276.437167412
15,3,17/9/96,19,f,89,I solved the exercise,Sklar_control_B,sklar_semantics,emo_sem_emo_sem,2.10252221958945,2,2,2,1,450279.283357943
15,3,17/9/96,19,f,90,I heard the thunder,Sklar_control_A,sklar_semantics,emo_sem_emo_sem,1.2440551025793,2,1,1,1,450281.271044475
15,3,17/9/96,19,f,91,I woke up the steam,Sklar_violation,sklar_semantics,emo_sem_emo_sem,1.4552349478472,2,2,2,1,450283.470345109
15,3,17/9/96,19,f,92,I made the coffee,Sklar_control_A,sklar_semantics,emo_sem_emo_sem,1.3267900760984,2,1,1,1,450285.54032017
15,3,17/9/96,19,f,93,I wore the shirt,Sklar_control_A,sklar_semantics,emo_sem_emo_sem,1.56205708335619,2,1,1,1,450287.845559352
15,3,17/9/96,19,f,94,I lifted the squash,Sklar_filler,sklar_semantics,emo_sem_emo_sem,1.48028651991626,1,2,2,1,450290.06835734
15,3,17/9/96,19,f,95,I interviewed the vinegar,Sklar_violation,sklar_semantics,emo_sem_emo_sem,1.35057479742682,2,1,1,1,450292.1618227
15,3,17/9/96,19,f,96,I watered the ground,Sklar_control_A,sklar_semantics,emo_sem_emo_sem,1.28022385091754,2,2,2,1,450294.184788619
15,3,17/9/96,19,f,97,I burnt the clouds,Sklar_violation,sklar_semantics,emo_sem_emo_sem,1.63251162291272,1,1,1,1,450296.560520506
15,3,17/9/96,19,f,98,I drew the rain,Sklar_control_A,sklar_semantics,emo_sem_emo_sem,1.82100072863977,2,1,1,1,450299.124433285
15,3,17/9/96,19,f,99,I heated the water,Sklar_control_A,sklar_semantics,emo_sem_emo_sem,1.2095364673296,1,2,2,1,450301.076825676
15,3,17/9/96,19,f,100,I sprinkled the sand,Sklar_control_A,sklar_semantics,emo_sem_emo_sem,1.96236619492993,1,2,2,1,450303.781892566
15,3,17/9/96,19,f,101,I opened the refrigerator,Sklar_control_A,sklar_semantics,emo_sem_emo_sem,1.98589337669546,1,2,2,1,450306.51051454
15,3,17/9/96,19,f,102,I shampooed the key,Sklar_violation,sklar_semantics,emo_sem_emo_sem,2.09159202402225,2,1,1,1,450309.344933303
15,3,17/9/96,19,f,103,I wore the vest,Sklar_filler,sklar_semantics,emo_sem_emo_sem,1.78587753302418,1,1,1,1,450311.873591711
15,3,17/9/96,19,f,104,I sewed the smoke,Sklar_violation,sklar_semantics,emo_sem_emo_sem,0.856873450917192,2,2,2,1,450313.473101071
15,3,17/9/96,19,f,105,I tore the juice,Sklar_violation,sklar_semantics,emo_sem_emo_sem,1.43297205102863,1,2,2,1,450315.648964005
15,3,17/9/96,19,f,106,I fixed the stairs,Sklar_control_A,sklar_semantics,emo_sem_emo_sem,1.45671539928298,1,1,1,1,450317.848303767
15,3,17/9/96,19,f,107,I tore the map,Sklar_control_B,sklar_semantics,emo_sem_emo_sem,1.3977032477851,2,2,2,1,450319.988803285
15,3,17/9/96,19,f,108,I cooked the tomatoes,Sklar_control_B,sklar_semantics,emo_sem_emo_sem,1.33849577675574,1,1,1,1,450322.070537607
15,3,17/9/96,19,f,109,I found the chasm,Sklar_control_A,sklar_semantics,emo_sem_emo_sem,1.22156802122481,1,1,1,1,450324.034665205
15,3,17/9/96,19,f,110,I dug the well,Sklar_control_B,sklar_semantics,emo_sem_emo_sem,2.3969569283654,1,2,2,1,450327.174895316
15,3,17/9/96,19,f,111,I scattered the dice,Sklar_filler,sklar_semantics,emo_sem_emo_sem,1.52719463442918,1,2,2,1,450329.444793853
15,3,17/9/96,19,f,112,I built the rice,Sklar_violation,sklar_semantics,emo_sem_emo_sem,1.29179260338424,2,1,1,1,450331.479490489
15,3,17/9/96,19,f,113,I changed the computer,Sklar_filler,sklar_semantics,emo_sem_emo_sem,1.04461880301824,2,2,2,1,450333.267335649
15,3,17/9/96,19,f,114,I fixed up the shed,Sklar_control_A,sklar_semantics,emo_sem_emo_sem,2.05637164972723,1,2,2,1,450336.066341925
15,3,17/9/96,19,f,115,I bought the shoe lace,Sklar_filler,sklar_semantics,emo_sem_emo_sem,0.985884717258159,2,1,1,1,450337.795229457
15,3,17/9/96,19,f,116,I turned off the door,Sklar_violation,sklar_semantics,emo_sem_emo_sem,1.02152010542341,1,2,2,1,450339.559409846
15,3,17/9/96,19,f,117,I ironed the coffee,Sklar_violation,sklar_semantics,emo_sem_emo_sem,1.10363512393087,2,1,1,1,450341.405932325
15,3,17/9/96,19,f,118,I looked for the way,Sklar_control_A,sklar_semantics,emo_sem_emo_sem,1.1036162013188,2,2,2,1,450343.252442937
15,3,17/9/96,19,f,119,I interviewed the woman,Sklar_control_B,sklar_semantics,emo_sem_emo_sem,0.939221634122077,2,1,1,1,450344.934282841
15,3,17/9/96,19,f,120,I fried the shirt,Sklar_violation,sklar_semantics,emo_sem_emo_sem,1.65667030576151,1,1,1,1,450347.333515931
15,3,17/9/96,19,f,121,I tasted the vinegar,Sklar_control_A,sklar_semantics,emo_sem_emo_sem,0.961832834756933,2,1,1,1,450349.03897827
15,3,17/9/96,19,f,122,I spilled the juice,Sklar_control_B,sklar_semantics,emo_sem_emo_sem,1.56120813300367,1,1,1,1,450351.344116425
15,3,17/9/96,19,f,123,I wore the gloves,Sklar_control_B,sklar_semantics,emo_sem_emo_sem,1.03206383128418,2,2,2,1,450353.120051906
15,3,17/9/96,19,f,124,I washed the head,Sklar_filler,sklar_semantics,emo_sem_emo_sem,1.32696358655812,1,1,1,1,450355.190020552
15,3,17/9/96,19,f,125,I woke up the child,Sklar_control_B,sklar_semantics,emo_sem_emo_sem,1.18565103941364,2,2,2,1,450357.118823862
15,3,17/9/96,19,f,126,I tasted the wine,Sklar_control_A,sklar_semantics,emo_sem_emo_sem,1.0331655103364,1,1,1,1,450358.894793019
15,3,17/9/96,19,f,127,I washed the dance,Sklar_violation,sklar_semantics,emo_sem_emo_sem,1.16241924226051,2,2,2,1,450360.800106672
15,3,17/9/96,19,f,128,I turned up the bread,Sklar_violation,sklar_semantics,emo_sem_emo_sem,1.67974719428457,2,2,2,1,450363.222911524
15,3,17/9/96,19,f,129,I shampooed the hair,Sklar_control_B,sklar_semantics,emo_sem_emo_sem,0.950284608406946,2,1,1,1,450364.916521914
15,3,17/9/96,19,f,130,I broke the hat,Sklar_violation,sklar_semantics,emo_sem_emo_sem,1.09200415143278,2,1,1,1,450366.751255946
15,3,17/9/96,19,f,131,I baked the bread,Sklar_control_A,sklar_semantics,emo_sem_emo_sem,0.892195494030602,2,2,2,1,450368.386126477
15,3,17/9/96,19,f,132,I cut the sand,Sklar_violation,sklar_semantics,emo_sem_emo_sem,2.17429043527227,1,2,2,1,450371.302868727
15,3,17/9/96,19,f,133,I swallowed the shed,Sklar_violation,sklar_semantics,emo_sem_emo_sem,1.3149317119387,2,2,2,1,450373.361101846
15,3,17/9/96,19,f,134,I shaved the glue,Sklar_violation,sklar_semantics,emo_sem_emo_sem,1.87968381971587,1,1,1,1,450375.983795215
15,3,17/9/96,19,f,135,I lit the lamp,Sklar_control_B,sklar_semantics,emo_sem_emo_sem,1.56227324972861,1,1,1,1,450378.288980836
15,3,17/9/96,19,f,136,I warmed up the food,Sklar_filler,sklar_semantics,emo_sem_emo_sem,1.43304485484259,1,2,2,1,450380.464802718
