subject_column,AssignedList_column,subject_dob_column,subject_age_column,subject_gender_column,trialnum_column,Stim_column,Type_column,Experiment_column,OrderGroup_column,ReactionTime_column,StimSide_column,StimPosition_column,Response_column,Valid_column,TrialEndSecs_column,PairID_column,List_column
17,1,10/4/93,23,f,1,The sofa sold Carl,Non-sensible,edin_semantics,emo_sem_emo_sem,1.29715603240766,2,1,1,1,524961.368526553,38,A
17,1,10/4/93,23,f,2,Lucy cut the ribbon,Sensible,edin_semantics,emo_sem_emo_sem,1.42123652331065,2,2,2,1,524963.53256993,95,A
17,1,10/4/93,23,f,3,The book read Sean,Non-sensible,edin_semantics,emo_sem_emo_sem,1.1624673504848,1,1,1,1,524965.437856963,4,A
17,1,10/4/93,23,f,4,Josh scrubbed the pot,Sensible,edin_semantics,emo_sem_emo_sem,1.78540927940048,2,2,2,1,524967.966557707,131,A
17,1,10/4/93,23,f,5,Ben got the radio,Sensible,edin_semantics,emo_sem_emo_sem,1.62160099146422,2,1,1,1,524970.330539634,88,A
17,1,10/4/93,23,f,6,The coins polished Jon,Non-sensible,edin_semantics,emo_sem_emo_sem,1.24498551618308,1,2,2,1,524972.318195055,29,A
17,1,10/4/93,23,f,7,Jay squeezed the lemon,Sensible,edin_semantics,emo_sem_emo_sem,2.3742876771139,2,1,2,0,524975.434872327,76,A
17,1,10/4/93,23,f,8,The eggs whisked Dan,Non-sensible,edin_semantics,emo_sem_emo_sem,2.67984886316117,2,1,1,1,524978.85741515,62,A
17,1,10/4/93,23,f,9,The museum visited Mary,Non-sensible,edin_semantics,emo_sem_emo_sem,0.844695968669839,1,1,1,1,524980.445101425,16,A
17,1,10/4/93,23,f,10,Tom offered the sweets,Sensible,edin_semantics,emo_sem_emo_sem,1.26869294361677,1,1,1,1,524982.456312894,84,A
17,1,10/4/93,23,f,11,Emma pulled the rope,Sensible,edin_semantics,emo_sem_emo_sem,3.02083119517192,2,1,1,1,524986.219870441,120,A
17,1,10/4/93,23,f,12,Tom grated the carrots,Sensible,edin_semantics,emo_sem_emo_sem,1.11499701079447,1,1,1,1,524988.078136466,140,A
17,1,10/4/93,23,f,13,The photo took Beth,Non-sensible,edin_semantics,emo_sem_emo_sem,0.915320490719751,1,2,2,1,524989.736463941,53,A
17,1,10/4/93,23,f,14,Alex dusted the house,Sensible,edin_semantics,emo_sem_emo_sem,0.926207068143412,1,1,1,1,524991.406549073,122,A
17,1,10/4/93,23,f,15,The teeth brushed Carl,Non-sensible,edin_semantics,emo_sem_emo_sem,2.32664029905573,2,1,1,1,524994.476222335,72,A
17,1,10/4/93,23,f,16,Max searched the internet,Sensible,edin_semantics,emo_sem_emo_sem,1.11530522443354,2,2,2,1,524996.334512413,85,A
17,1,10/4/93,23,f,17,The table wiped Beth,Non-sensible,edin_semantics,emo_sem_emo_sem,1.04463997064158,1,1,1,1,524998.122189516,40,A
17,1,10/4/93,23,f,18,Jack posted the gift,Sensible,edin_semantics,emo_sem_emo_sem,2.63260142505169,2,2,2,1,525001.497648148,111,A
17,1,10/4/93,23,f,19,The milk sniffed Phil,Non-sensible,edin_semantics,emo_sem_emo_sem,2.79762588965241,2,1,1,1,525005.037780054,18,A
17,1,10/4/93,23,f,20,The trolley pushed Matt,Non-sensible,edin_semantics,emo_sem_emo_sem,1.53901322907768,2,1,1,1,525007.319454529,26,A
17,1,10/4/93,23,f,21,Ian pushed the button,Sensible,edin_semantics,emo_sem_emo_sem,1.03286435268819,2,2,2,1,525009.095388728,101,A
17,1,10/4/93,23,f,22,Owen swallowed the gum,Sensible,edin_semantics,emo_sem_emo_sem,1.02133921836503,1,2,2,1,525010.85957521,97,A
17,1,10/4/93,23,f,23,Leo carried the wallet,Sensible,edin_semantics,emo_sem_emo_sem,4.02072343265172,2,1,1,1,525015.622837053,150,A
17,1,10/4/93,23,f,24,The plans cancelled Ian,Non-sensible,edin_semantics,emo_sem_emo_sem,1.25689519580919,1,2,2,1,525017.622246604,7,A
17,1,10/4/93,23,f,25,Jay painted the portrait,Sensible,edin_semantics,emo_sem_emo_sem,1.38600588589907,1,1,1,1,525019.751013481,110,A
17,1,10/4/93,23,f,26,Tom visited the hospital,Sensible,edin_semantics,emo_sem_emo_sem,0.903931663255207,1,2,2,1,525021.397579449,91,A
17,1,10/4/93,23,f,27,Sara jumped the hedge,Sensible,edin_semantics,emo_sem_emo_sem,1.45656369789504,1,1,1,1,525023.596908628,92,A
17,1,10/4/93,23,f,28,Zoe paid the debt,Sensible,edin_semantics,emo_sem_emo_sem,14.664504254004,2,1,1,1,525039.004055526,134,A
17,1,10/4/93,23,f,29,The tree hugged Amy,Non-sensible,edin_semantics,emo_sem_emo_sem,1.05504931416363,1,2,2,1,525040.803512095,11,A
17,1,10/4/93,23,f,30,The mirror kissed Max,Non-sensible,edin_semantics,emo_sem_emo_sem,1.14962052204646,1,2,2,1,525042.697072581,23,A
17,1,10/4/93,23,f,31,Kate hugged the pillow,Sensible,edin_semantics,emo_sem_emo_sem,1.04412328801118,1,1,1,1,525044.484786887,86,A
17,1,10/4/93,23,f,32,The laptop fixed Jen,Non-sensible,edin_semantics,emo_sem_emo_sem,1.12568249576725,1,2,2,1,525046.354799023,37,A
17,1,10/4/93,23,f,33,The folder carried Dan,Non-sensible,edin_semantics,emo_sem_emo_sem,1.08014065562747,1,1,1,1,525048.177770907,30,A
17,1,10/4/93,23,f,34,The letter typed Phil,Non-sensible,edin_semantics,emo_sem_emo_sem,0.962534253136255,1,2,2,1,525049.883151142,49,A
17,1,10/4/93,23,f,35,Amy lifted the crate,Sensible,edin_semantics,emo_sem_emo_sem,1.28040954878088,1,1,1,1,525051.906114495,144,A
17,1,10/4/93,23,f,36,The shirt ironed Josh,Non-sensible,edin_semantics,emo_sem_emo_sem,1.51527052232996,2,2,2,1,525054.164237734,55,A
17,1,10/4/93,23,f,37,The bushes trimmed Jon,Non-sensible,edin_semantics,emo_sem_emo_sem,3.47980992740486,2,1,1,1,525058.386518399,32,A
17,1,10/4/93,23,f,38,The card posted Erin,Non-sensible,edin_semantics,emo_sem_emo_sem,1.06860397534911,1,1,1,1,525060.197709213,36,A
17,1,10/4/93,23,f,39,The dish served Kate,Non-sensible,edin_semantics,emo_sem_emo_sem,3.29147797543556,2,1,1,1,525064.231804817,70,A
17,1,10/4/93,23,f,40,Lucy counted the shoes,Sensible,edin_semantics,emo_sem_emo_sem,8.93694900011178,2,2,2,1,525073.911254381,123,A
17,1,10/4/93,23,f,41,The jar labeled Liz,Non-sensible,edin_semantics,emo_sem_emo_sem,1.31451926380396,2,2,2,1,525075.969493593,61,A
17,1,10/4/93,23,f,42,The box lifted Kate,Non-sensible,edin_semantics,emo_sem_emo_sem,1.326863842085,1,2,2,1,525078.039469616,69,A
17,1,10/4/93,23,f,43,Ella mashed the turnip,Sensible,edin_semantics,emo_sem_emo_sem,0.868071448989213,1,2,2,1,525079.65070392,103,A
17,1,10/4/93,23,f,44,Liz weighed the sugar,Sensible,edin_semantics,emo_sem_emo_sem,0.786328467773274,1,2,2,1,525081.17966509,139,A
17,1,10/4/93,23,f,45,Bill trimmed the hair,Sensible,edin_semantics,emo_sem_emo_sem,1.48033045884222,1,2,2,1,525083.402526581,107,A
17,1,10/4/93,23,f,46,Liam sliced the onion,Sensible,edin_semantics,emo_sem_emo_sem,0.985916147939861,1,1,1,1,525085.131458694,78,A
17,1,10/4/93,23,f,47,Liam mixed the nuts,Sensible,edin_semantics,emo_sem_emo_sem,1.15114555379841,1,2,2,1,525087.025003785,83,A
17,1,10/4/93,23,f,48,Ian dented the bowl,Sensible,edin_semantics,emo_sem_emo_sem,1.2334141980391,2,1,1,1,525089.000838046,146,A
17,1,10/4/93,23,f,49,Lucy wiped the desk,Sensible,edin_semantics,emo_sem_emo_sem,2.31516455579549,2,2,2,1,525092.058776742,115,A
17,1,10/4/93,23,f,50,Andy pulled the rope,Sensible,edin_semantics,emo_sem_emo_sem,1.26828947570175,1,1,1,1,525094.069913803,148,A
17,1,10/4/93,23,f,51,The gun carried Ryan,Non-sensible,edin_semantics,emo_sem_emo_sem,1.30316090479027,1,2,2,1,525096.116369379,75,A
17,1,10/4/93,23,f,52,The house built Kate,Non-sensible,edin_semantics,emo_sem_emo_sem,1.11532767489553,1,1,1,1,525097.974625782,46,A
17,1,10/4/93,23,f,53,The sheets counted Bill,Non-sensible,edin_semantics,emo_sem_emo_sem,8.52514618495479,2,1,1,1,525107.2424454,48,A
17,1,10/4/93,23,f,54,Dan brushed the hair,Sensible,edin_semantics,emo_sem_emo_sem,1.16273803962395,1,2,2,1,525109.147711266,147,A
17,1,10/4/93,23,f,55,Erin punched the monitor,Sensible,edin_semantics,emo_sem_emo_sem,1.23319995589554,1,2,2,1,525111.123666118,125,A
17,1,10/4/93,23,f,56,Luke read the poster,Sensible,edin_semantics,emo_sem_emo_sem,3.16181275749113,2,2,1,0,525115.028307218,79,A
17,1,10/4/93,23,f,57,The bucket lent Max,Non-sensible,edin_semantics,emo_sem_emo_sem,1.16247857583221,1,2,2,1,525116.933648774,19,A
17,1,10/4/93,23,f,58,Erin described the church,Sensible,edin_semantics,emo_sem_emo_sem,3.66767651238479,2,2,2,1,525121.34417223,117,A
17,1,10/4/93,23,f,59,Fred served the dessert,Sensible,edin_semantics,emo_sem_emo_sem,4.79663870832883,2,2,2,1,525126.883613943,145,A
17,1,10/4/93,23,f,60,The lorry dented Lily,Non-sensible,edin_semantics,emo_sem_emo_sem,3.42033337103203,2,2,2,1,525131.047082908,71,A
17,1,10/4/93,23,f,61,Eve ironed the trousers,Sensible,edin_semantics,emo_sem_emo_sem,7.74868055083789,2,1,1,1,525139.538655624,130,A
17,1,10/4/93,23,f,62,The picture painted Ryan,Non-sensible,edin_semantics,emo_sem_emo_sem,0.903779320418835,2,2,2,1,525141.185256231,35,A
17,1,10/4/93,23,f,63,The juice drank Matt,Non-sensible,edin_semantics,emo_sem_emo_sem,4.2557797258487,2,1,1,1,525146.183696241,60,A
17,1,10/4/93,23,f,64,The parcel mailed Rob,Non-sensible,edin_semantics,emo_sem_emo_sem,6.1141862263903,2,1,1,1,525153.040515169,14,A
17,1,10/4/93,23,f,65,The movie watched Ella,Non-sensible,edin_semantics,emo_sem_emo_sem,0.891479643178172,1,2,2,1,525154.675289163,33,A
17,1,10/4/93,23,f,66,The fence jumped Jon,Non-sensible,edin_semantics,emo_sem_emo_sem,1.35073387541343,1,2,2,1,525156.768780501,17,A
17,1,10/4/93,23,f,67,The garden watered Jeff,Non-sensible,edin_semantics,emo_sem_emo_sem,10.9710997674847,2,1,1,1,525168.482925418,54,A
17,1,10/4/93,23,f,68,Jane licked the plate,Sensible,edin_semantics,emo_sem_emo_sem,2.83162688009907,1,1,1,1,525172.058328373,96,A
17,1,10/4/93,23,f,69,The jumper wore Joe,Non-sensible,edin_semantics,emo_sem_emo_sem,0.962468505138531,1,2,2,1,525173.763699627,25,A
17,1,10/4/93,23,f,70,Mike ate the steak,Sensible,edin_semantics,emo_sem_emo_sem,1.06868191075046,1,1,1,1,525175.574904874,142,A
17,1,10/4/93,23,f,71,Phil cancelled the party,Sensible,edin_semantics,emo_sem_emo_sem,1.00948213704396,1,1,1,1,525177.327322795,82,A
17,1,10/4/93,23,f,72,Adam watched the opera,Sensible,edin_semantics,emo_sem_emo_sem,5.98482441122178,2,1,1,1,525184.054746553,108,A
17,1,10/4/93,23,f,73,The papers filed Lara,Non-sensible,edin_semantics,emo_sem_emo_sem,20.0036296073813,2,1,0,-1,525204.801458835,24,A
17,1,10/4/93,23,f,74,Beth washed the pan,Sensible,edin_semantics,emo_sem_emo_sem,12.122951229685,2,1,1,1,525217.668178121,132,A
17,1,10/4/93,23,f,75,Tom whisked the cream,Sensible,edin_semantics,emo_sem_emo_sem,1.16171589959413,2,2,2,1,525219.573530902,137,A
17,1,10/4/93,23,f,76,The lever pulled Hugh,Non-sensible,edin_semantics,emo_sem_emo_sem,1.17315764620434,2,2,2,1,525221.490594836,45,A
17,1,10/4/93,23,f,77,Phil solved the problem,Sensible,edin_semantics,emo_sem_emo_sem,2.13865600933786,1,2,2,1,525224.372077905,109,A
17,1,10/4/93,23,f,78,The ball squeezed Josh,Non-sensible,edin_semantics,emo_sem_emo_sem,1.92644279869273,2,2,2,1,525227.041860276,1,A
17,1,10/4/93,23,f,79,The cheese grated Andy,Non-sensible,edin_semantics,emo_sem_emo_sem,3.12683998048306,2,2,2,1,525230.911275869,65,A
17,1,10/4/93,23,f,80,Ian filed the report,Sensible,edin_semantics,emo_sem_emo_sem,1.42150528798811,1,2,2,1,525233.075329189,99,A
17,1,10/4/93,23,f,81,Ryan knitted the socks,Sensible,edin_semantics,emo_sem_emo_sem,1.04486383439507,1,2,2,1,525234.863025214,141,A
17,1,10/4/93,23,f,82,The floor cleaned Tim,Non-sensible,edin_semantics,emo_sem_emo_sem,5.3729088944383,2,2,2,1,525240.978863798,5,A
17,1,10/4/93,23,f,83,Hugh kissed the rose,Sensible,edin_semantics,emo_sem_emo_sem,5.33772604470141,2,1,1,1,525247.059380019,98,A
17,1,10/4/93,23,f,84,The bowl scrubbed Liz,Non-sensible,edin_semantics,emo_sem_emo_sem,0.891962329274975,1,1,1,1,525248.694199876,56,A
17,1,10/4/93,23,f,85,Tim sniffed the perfume,Sensible,edin_semantics,emo_sem_emo_sem,1.28012186137494,1,2,2,1,525250.717120253,93,A
17,1,10/4/93,23,f,86,The hill climbed Luke,Non-sensible,edin_semantics,emo_sem_emo_sem,1.3860100551974,1,1,1,1,525252.845922408,68,A
17,1,10/4/93,23,f,87,Sam sucked the candy,Sensible,edin_semantics,emo_sem_emo_sem,1.38552384125069,2,2,2,1,525254.974652402,87,A
17,1,10/4/93,23,f,88,Ryan stroked the blanket,Sensible,edin_semantics,emo_sem_emo_sem,1.03272355580702,1,1,1,1,525256.750603919,116,A
17,1,10/4/93,23,f,89,Anna polished the trophy,Sensible,edin_semantics,emo_sem_emo_sem,0.962623413768597,1,1,1,1,525258.455959458,104,A
17,1,10/4/93,23,f,90,The fruits mixed Jack,Non-sensible,edin_semantics,emo_sem_emo_sem,0.880132830119692,1,1,1,1,525260.07901813,8,A
17,1,10/4/93,23,f,91,The cake iced Mary,Non-sensible,edin_semantics,emo_sem_emo_sem,1.63257897447329,2,1,1,1,525262.454757714,44,A
17,1,10/4/93,23,f,92,Fred stored the rice,Sensible,edin_semantics,emo_sem_emo_sem,1.32704761566129,2,2,2,1,525264.52472636,127,A
17,1,10/4/93,23,f,93,The flour weighed Jen,Non-sensible,edin_semantics,emo_sem_emo_sem,1.20975423743948,1,1,1,1,525266.477136391,64,A
17,1,10/4/93,23,f,94,Ian labeled the box,Sensible,edin_semantics,emo_sem_emo_sem,1.0564874302363,1,1,1,1,525268.276575,136,A
17,1,10/4/93,23,f,95,The puzzle solved Joe,Non-sensible,edin_semantics,emo_sem_emo_sem,1.2211052197963,1,1,1,1,525270.240657698,34,A
17,1,10/4/93,23,f,96,The fur stroked Rob,Non-sensible,edin_semantics,emo_sem_emo_sem,5.23181572102476,2,2,2,1,525276.215355963,41,A
17,1,10/4/93,23,f,97,Josh crushed the ice,Sensible,edin_semantics,emo_sem_emo_sem,1.20977732934989,1,2,2,1,525278.167718848,81,A
17,1,10/4/93,23,f,98,The paper cut Jon,Non-sensible,edin_semantics,emo_sem_emo_sem,5.80828283040319,2,1,1,1,525284.718670621,20,A
17,1,10/4/93,23,f,99,Eve typed the message,Sensible,edin_semantics,emo_sem_emo_sem,1.12685313005932,1,1,1,1,525286.588718678,124,A
17,1,10/4/93,23,f,100,The wine stored Leo,Non-sensible,edin_semantics,emo_sem_emo_sem,1.45677312917542,2,1,1,1,525288.788066779,52,A
17,1,10/4/93,23,f,101,Hugh dialed the hotline,Sensible,edin_semantics,emo_sem_emo_sem,0.90393326675985,1,1,1,1,525290.434613505,138,A
17,1,10/4/93,23,f,102,Jay sold the bed,Sensible,edin_semantics,emo_sem_emo_sem,1.22117096779402,2,2,2,1,525292.398739179,113,A
17,1,10/4/93,23,f,103,The shelf dusted Jake,Non-sensible,edin_semantics,emo_sem_emo_sem,0.891988628427498,1,2,2,1,525294.033540113,47,A
17,1,10/4/93,23,f,104,The handle pulled Tim,Non-sensible,edin_semantics,emo_sem_emo_sem,8.71318660106044,2,2,2,1,525303.489523305,73,A
17,1,10/4/93,23,f,105,Ben climbed the stairs,Sensible,edin_semantics,emo_sem_emo_sem,1.11399443494156,1,2,2,1,525305.347793499,143,A
17,1,10/4/93,23,f,106,Fred chopped the carrots,Sensible,edin_semantics,emo_sem_emo_sem,1.53843304351904,1,1,1,1,525307.629486897,102,A
17,1,10/4/93,23,f,107,The lesson taught Eve,Non-sensible,edin_semantics,emo_sem_emo_sem,2.05536137637682,2,2,2,1,525310.42862114,15,A
17,1,10/4/93,23,f,108,Luke fixed the radio,Sensible,edin_semantics,emo_sem_emo_sem,1.00877077644691,1,1,1,1,525312.181037458,112,A
17,1,10/4/93,23,f,109,Max kicked the door,Sensible,edin_semantics,emo_sem_emo_sem,1.57402545504738,2,1,1,1,525314.497995169,114,A
17,1,10/4/93,23,f,110,The scarf knitted Tom,Non-sensible,edin_semantics,emo_sem_emo_sem,1.04374227067456,1,1,1,1,525316.285705306,66,A
17,1,10/4/93,23,f,111,The bike kicked Matt,Non-sensible,edin_semantics,emo_sem_emo_sem,1.27946919272654,2,2,2,1,525318.308626644,39,A
17,1,10/4/93,23,f,112,The money offered Matt,Non-sensible,edin_semantics,emo_sem_emo_sem,2.06764341390226,1,2,2,1,525321.119539713,9,A
17,1,10/4/93,23,f,113,The room tidied Sam,Non-sensible,edin_semantics,emo_sem_emo_sem,0.996509585645981,1,1,1,1,525322.860154113,2,A
17,1,10/4/93,23,f,114,Joe entered the office,Sensible,edin_semantics,emo_sem_emo_sem,1.73728466744069,2,2,2,1,525325.341766497,133,A
17,1,10/4/93,23,f,115,The story wrote Ewan,Non-sensible,edin_semantics,emo_sem_emo_sem,3.64311436167918,2,1,1,1,525329.728736793,74,A
17,1,10/4/93,23,f,116,The ham ate Tim,Non-sensible,edin_semantics,emo_sem_emo_sem,1.03205100237392,1,2,2,1,525331.504678047,67,A
17,1,10/4/93,23,f,117,The pill swallowed Luke,Non-sensible,edin_semantics,emo_sem_emo_sem,4.87769566581119,2,1,1,1,525337.126554217,22,A
17,1,10/4/93,23,f,118,The herbs chopped Phil,Non-sensible,edin_semantics,emo_sem_emo_sem,0.832318676752038,1,2,2,1,525338.7025117,27,A
17,1,10/4/93,23,f,119,The lolly sucked Leah,Non-sensible,edin_semantics,emo_sem_emo_sem,0.761698965448886,1,1,1,1,525340.20791554,12,A
17,1,10/4/93,23,f,120,The toffee chewed Ben,Non-sensible,edin_semantics,emo_sem_emo_sem,1.70313229644671,2,2,2,1,525342.654255592,31,A
17,1,10/4/93,23,f,121,The kettle got Lily,Non-sensible,edin_semantics,emo_sem_emo_sem,3.28982176852878,2,2,2,1,525346.688314312,13,A
17,1,10/4/93,23,f,122,The potatoes mashed Will,Non-sensible,edin_semantics,emo_sem_emo_sem,2.14865290478338,2,1,1,1,525349.581628163,28,A
17,1,10/4/93,23,f,123,The tomato sliced Liz,Non-sensible,edin_semantics,emo_sem_emo_sem,1.10261843609624,1,2,2,1,525351.428133643,3,A
17,1,10/4/93,23,f,124,Ian mailed the invite,Sensible,edin_semantics,emo_sem_emo_sem,1.53822265018243,1,2,2,1,525353.709774443,89,A
17,1,10/4/93,23,f,125,The thread measured Amy,Non-sensible,edin_semantics,emo_sem_emo_sem,1.1618403395405,2,2,2,1,525355.615110226,51,A
17,1,10/4/93,23,f,126,Tim took the ticket,Sensible,edin_semantics,emo_sem_emo_sem,3.11454864195548,2,1,1,1,525359.472772652,128,A
17,1,10/4/93,23,f,127,Leo passed the salt,Sensible,edin_semantics,emo_sem_emo_sem,0.974000695394352,1,1,1,1,525361.189900923,118,A
17,1,10/4/93,23,f,128,Fred lent the car,Sensible,edin_semantics,emo_sem_emo_sem,3.18499067332596,2,1,1,1,525365.118124689,94,A
17,1,10/4/93,23,f,129,The bill paid Mike,Non-sensible,edin_semantics,emo_sem_emo_sem,0.774188189185224,2,2,2,1,525366.63531441,59,A
17,1,10/4/93,23,f,130,The room entered Ryan,Non-sensible,edin_semantics,emo_sem_emo_sem,6.7012820529053,2,1,1,1,525374.080148032,58,A
17,1,10/4/93,23,f,131,Jack drank the beer,Sensible,edin_semantics,emo_sem_emo_sem,1.17274391523097,2,2,2,1,525375.99721806,135,A
17,1,10/4/93,23,f,132,Rose built the shed,Sensible,edin_semantics,emo_sem_emo_sem,1.33699415775482,2,2,2,1,525378.078944684,121,A
17,1,10/4/93,23,f,133,The number dialed Tom,Non-sensible,edin_semantics,emo_sem_emo_sem,1.16071556857787,1,2,2,1,525379.984260582,63,A
17,1,10/4/93,23,f,134,Erin tidied the garage,Sensible,edin_semantics,emo_sem_emo_sem,1.04320377891418,1,2,2,1,525381.771976813,77,A
17,1,10/4/93,23,f,135,John carried the kettle,Sensible,edin_semantics,emo_sem_emo_sem,1.18406218418386,1,2,2,1,525383.700786538,105,A
17,1,10/4/93,23,f,136,The spoon licked Will,Non-sensible,edin_semantics,emo_sem_emo_sem,1.12573060404975,1,2,2,1,525385.570841971,21,A
17,1,10/4/93,23,f,137,Rob measured the curtains,Sensible,edin_semantics,emo_sem_emo_sem,1.00787339708768,1,1,1,1,525387.323242894,126,A
17,1,10/4/93,23,f,138,The towels passed Phil,Non-sensible,edin_semantics,emo_sem_emo_sem,1.71410739305429,2,2,2,1,525389.781329058,43,A
17,1,10/4/93,23,f,139,The garlic crushed Erin,Non-sensible,edin_semantics,emo_sem_emo_sem,1.26659317873418,1,1,1,1,525391.792490494,6,A
17,1,10/4/93,23,f,140,Josh taught the rules,Sensible,edin_semantics,emo_sem_emo_sem,1.20866057637613,1,1,1,1,525393.744883847,90,A
17,1,10/4/93,23,f,141,The wall punched Jane,Non-sensible,edin_semantics,emo_sem_emo_sem,0.726441708160564,1,1,1,1,525395.215006055,50,A
17,1,10/4/93,23,f,142,The dishes washed Mark,Non-sensible,edin_semantics,emo_sem_emo_sem,2.86764681350905,2,2,2,1,525398.825777237,57,A
17,1,10/4/93,23,f,143,Joe iced the donut,Sensible,edin_semantics,emo_sem_emo_sem,0.972300549619831,1,2,2,1,525400.542811216,119,A
17,1,10/4/93,23,f,144,Luke watered the plants,Sensible,edin_semantics,emo_sem_emo_sem,1.29046545701567,1,2,2,1,525402.577509455,129,A
17,1,10/4/93,23,f,145,Alex wrote the report,Sensible,edin_semantics,emo_sem_emo_sem,0.867398254340515,1,2,2,1,525404.18877102,149,A
17,1,10/4/93,23,f,146,The pen described John,Non-sensible,edin_semantics,emo_sem_emo_sem,0.973924042889848,1,1,1,1,525405.905906347,42,A
17,1,10/4/93,23,f,147,The room searched Jen,Non-sensible,edin_semantics,emo_sem_emo_sem,7.47784871433396,2,1,1,1,525414.126969231,10,A
17,1,10/4/93,23,f,148,Kate wore the dress,Sensible,edin_semantics,emo_sem_emo_sem,1.04431860742625,1,1,1,1,525415.914668464,100,A
17,1,10/4/93,23,f,149,Adam chewed the fat,Sensible,edin_semantics,emo_sem_emo_sem,4.49049509165343,2,1,1,1,525421.148407873,106,A
17,1,10/4/93,23,f,150,Jack cleaned the bath,Sensible,edin_semantics,emo_sem_emo_sem,1.23262810904998,1,1,1,1,525423.124268434,80,A
17,1,10/4/93,23,f,151,Joe solved the puzzle,Sensible,edin_semantics,emo_sem_emo_sem,5.08320803800598,2,2,2,1,525471.498019864,34,B
17,1,10/4/93,23,f,152,Tim ate the ham,Sensible,edin_semantics,emo_sem_emo_sem,1.6547062061727,1,1,1,1,525473.897293365,67,B
17,1,10/4/93,23,f,153,Ryan painted the picture,Sensible,edin_semantics,emo_sem_emo_sem,1.24333828955423,2,1,1,1,525475.884946542,35,B
17,1,10/4/93,23,f,154,Eve taught the lesson,Sensible,edin_semantics,emo_sem_emo_sem,0.996927806758322,1,1,1,1,525477.625588524,15,B
17,1,10/4/93,23,f,155,Sean read the book,Sensible,edin_semantics,emo_sem_emo_sem,2.40854267904069,2,2,2,1,525480.777598423,4,B
17,1,10/4/93,23,f,156,Liz labeled the jar,Sensible,edin_semantics,emo_sem_emo_sem,1.00915852899197,1,1,1,1,525482.530029814,61,B
17,1,10/4/93,23,f,157,The trophy polished Anna,Non-sensible,edin_semantics,emo_sem_emo_sem,0.985864832415245,2,2,2,1,525484.258920233,104,B
17,1,10/4/93,23,f,158,Mark washed the dishes,Sensible,edin_semantics,emo_sem_emo_sem,0.832968458998948,1,1,1,1,525485.83490209,57,B
17,1,10/4/93,23,f,159,The pot scrubbed Josh,Non-sensible,edin_semantics,emo_sem_emo_sem,1.70300015911926,2,1,1,1,525488.281230596,131,B
17,1,10/4/93,23,f,160,The trousers ironed Eve,Non-sensible,edin_semantics,emo_sem_emo_sem,0.903253336786292,2,2,2,1,525489.927813884,130,B
17,1,10/4/93,23,f,161,The message typed Eve,Non-sensible,edin_semantics,emo_sem_emo_sem,1.96165836218279,2,2,2,1,525492.632867945,124,B
17,1,10/4/93,23,f,162,Leo stored the wine,Sensible,edin_semantics,emo_sem_emo_sem,1.10304403374903,2,2,2,1,525494.479398121,52,B
17,1,10/4/93,23,f,163,The portrait painted Jay,Non-sensible,edin_semantics,emo_sem_emo_sem,0.785608126781881,1,2,2,1,525496.008367629,110,B
17,1,10/4/93,23,f,164,The candy sucked Sam,Non-sensible,edin_semantics,emo_sem_emo_sem,4.39627763989847,2,1,1,1,525501.147980672,87,B
17,1,10/4/93,23,f,165,Lara filed the papers,Sensible,edin_semantics,emo_sem_emo_sem,1.07975033740513,1,2,2,1,525502.970946783,24,B
17,1,10/4/93,23,f,166,The plants watered Luke,Non-sensible,edin_semantics,emo_sem_emo_sem,1.10320696036797,1,1,1,1,525504.81741955,129,B
17,1,10/4/93,23,f,167,The bowl dented Ian,Non-sensible,edin_semantics,emo_sem_emo_sem,1.12645286938641,2,2,2,1,525506.687505452,146,B
17,1,10/4/93,23,f,168,Liz sliced the tomato,Sensible,edin_semantics,emo_sem_emo_sem,1.84408948384225,1,1,1,1,525509.274977165,3,B
17,1,10/4/93,23,f,169,The sugar weighed Liz,Non-sensible,edin_semantics,emo_sem_emo_sem,1.0207853319589,1,1,1,1,525511.039119067,139,B
17,1,10/4/93,23,f,170,Phil passed the towels,Sensible,edin_semantics,emo_sem_emo_sem,0.950609820196405,1,1,1,1,525512.73273074,43,B
17,1,10/4/93,23,f,171,The lemon squeezed Jay,Non-sensible,edin_semantics,emo_sem_emo_sem,2.24393771844916,2,2,2,1,525515.720069609,76,B
17,1,10/4/93,23,f,172,The house dusted Alex,Non-sensible,edin_semantics,emo_sem_emo_sem,2.44375663890969,2,2,2,1,525518.907372045,122,B
17,1,10/4/93,23,f,173,The beer drank Jack,Non-sensible,edin_semantics,emo_sem_emo_sem,1.33865485468414,1,1,1,1,525520.989072691,135,B
17,1,10/4/93,23,f,174,The gift posted Jack,Non-sensible,edin_semantics,emo_sem_emo_sem,3.89029810437933,2,1,1,1,525525.623020826,111,B
17,1,10/4/93,23,f,175,The salt passed Leo,Non-sensible,edin_semantics,emo_sem_emo_sem,0.691803764551878,1,2,2,1,525527.057835744,118,B
17,1,10/4/93,23,f,176,The rules taught Josh,Non-sensible,edin_semantics,emo_sem_emo_sem,1.04468230600469,1,2,2,1,525528.845562879,90,B
17,1,10/4/93,23,f,177,The stairs climbed Ben,Non-sensible,edin_semantics,emo_sem_emo_sem,0.985621083993465,1,1,1,1,525530.574441752,143,B
17,1,10/4/93,23,f,178,Lily got the kettle,Sensible,edin_semantics,emo_sem_emo_sem,1.97368863318115,2,1,1,1,525533.291271431,13,B
17,1,10/4/93,23,f,179,The pan washed Beth,Non-sensible,edin_semantics,emo_sem_emo_sem,0.997476882417686,2,2,2,1,525535.031962483,132,B
17,1,10/4/93,23,f,180,The poster read Luke,Non-sensible,edin_semantics,emo_sem_emo_sem,1.69173833727837,2,1,1,1,525537.46649228,79,B
17,1,10/4/93,23,f,181,The church described Erin,Non-sensible,edin_semantics,emo_sem_emo_sem,1.57384713378269,2,1,1,1,525539.783476931,117,B
17,1,10/4/93,23,f,182,Josh squeezed the ball,Sensible,edin_semantics,emo_sem_emo_sem,0.762228477047756,1,1,1,1,525541.288840039,1,B
17,1,10/4/93,23,f,183,The perfume sniffed Tim,Non-sensible,edin_semantics,emo_sem_emo_sem,1.00878296373412,1,1,1,1,525543.041303503,93,B
17,1,10/4/93,23,f,184,The party cancelled Phil,Non-sensible,edin_semantics,emo_sem_emo_sem,0.903684066026472,1,2,2,1,525544.687887432,82,B
17,1,10/4/93,23,f,185,Ben chewed the toffee,Sensible,edin_semantics,emo_sem_emo_sem,1.0915253139101,1,1,1,1,525546.522608635,31,B
17,1,10/4/93,23,f,186,The onion sliced Liam,Non-sensible,edin_semantics,emo_sem_emo_sem,1.02099412179086,1,2,2,1,525548.286764008,78,B
17,1,10/4/93,23,f,187,Kate built the house,Sensible,edin_semantics,emo_sem_emo_sem,0.985727563500404,1,2,2,1,525550.015668217,46,B
17,1,10/4/93,23,f,188,The ribbon cut Lucy,Non-sensible,edin_semantics,emo_sem_emo_sem,0.98552550887689,1,1,1,1,525551.744569219,95,B
17,1,10/4/93,23,f,189,The sweets offered Tom,Non-sensible,edin_semantics,emo_sem_emo_sem,0.809254296356812,1,2,2,1,525553.297046666,84,B
17,1,10/4/93,23,f,190,The hospital visited Tom,Non-sensible,edin_semantics,emo_sem_emo_sem,6.18377032736316,2,1,1,1,525560.224382354,91,B
17,1,10/4/93,23,f,191,The shoes counted Lucy,Non-sensible,edin_semantics,emo_sem_emo_sem,1.1031251763925,2,1,1,1,525562.070922793,123,B
17,1,10/4/93,23,f,192,The nuts mixed Liam,Non-sensible,edin_semantics,emo_sem_emo_sem,2.47943821107037,2,1,1,1,525565.2934533,83,B
17,1,10/4/93,23,f,193,Tim pulled the handle,Sensible,edin_semantics,emo_sem_emo_sem,1.66764668526594,2,1,1,1,525567.704491515,73,B
17,1,10/4/93,23,f,194,The office entered Joe,Non-sensible,edin_semantics,emo_sem_emo_sem,1.30327604385093,2,1,1,1,525569.750961844,133,B
17,1,10/4/93,23,f,195,John described the pen,Sensible,edin_semantics,emo_sem_emo_sem,1.40923672087956,1,2,2,1,525571.903239546,42,B
17,1,10/4/93,23,f,196,The bed sold Jay,Non-sensible,edin_semantics,emo_sem_emo_sem,1.1858431516448,1,1,1,1,525573.832082305,113,B
17,1,10/4/93,23,f,197,Mike paid the bill,Sensible,edin_semantics,emo_sem_emo_sem,3.85509729408659,2,1,1,1,525578.430690437,59,B
17,1,10/4/93,23,f,198,Jake dusted the shelf,Sensible,edin_semantics,emo_sem_emo_sem,2.45585297862999,2,1,1,1,525581.62977298,47,B
17,1,10/4/93,23,f,199,The shed built Rose,Non-sensible,edin_semantics,emo_sem_emo_sem,1.47966303688008,1,1,1,1,525583.852617795,121,B
17,1,10/4/93,23,f,200,The car lent Fred,Non-sensible,edin_semantics,emo_sem_emo_sem,1.25626722280867,2,2,2,1,525585.85202895,94,B
17,1,10/4/93,23,f,201,The button pushed Ian,Non-sensible,edin_semantics,emo_sem_emo_sem,1.04412296728697,1,1,1,1,525587.639703166,101,B
17,1,10/4/93,23,f,202,The carrots grated Tom,Non-sensible,edin_semantics,emo_sem_emo_sem,1.0210749435937,1,2,2,1,525589.403888366,140,B
17,1,10/4/93,23,f,203,Ian cancelled the plans,Sensible,edin_semantics,emo_sem_emo_sem,1.43266030959785,1,1,1,1,525591.57969357,7,B
17,1,10/4/93,23,f,204,The gum swallowed Owen,Non-sensible,edin_semantics,emo_sem_emo_sem,0.855811541434377,1,1,1,1,525593.179237247,97,B
17,1,10/4/93,23,f,205,Matt drank the juice,Sensible,edin_semantics,emo_sem_emo_sem,0.856523222755641,1,2,2,1,525594.778737306,60,B
17,1,10/4/93,23,f,206,Leah sucked the lolly,Sensible,edin_semantics,emo_sem_emo_sem,1.25618992885575,2,2,2,1,525596.778147499,12,B
17,1,10/4/93,23,f,207,The box labeled Ian,Non-sensible,edin_semantics,emo_sem_emo_sem,1.11511343286838,2,2,2,1,525598.636392997,136,B
17,1,10/4/93,23,f,208,Rob mailed the parcel,Sensible,edin_semantics,emo_sem_emo_sem,0.903476879815571,1,2,2,1,525600.282968267,14,B
17,1,10/4/93,23,f,209,Will licked the spoon,Sensible,edin_semantics,emo_sem_emo_sem,0.997303692740388,1,1,1,1,525602.023649056,21,B
17,1,10/4/93,23,f,210,Phil typed the letter,Sensible,edin_semantics,emo_sem_emo_sem,1.33843740541488,2,1,1,1,525604.105374077,49,B
17,1,10/4/93,23,f,211,Joe wore the jumper,Sensible,edin_semantics,emo_sem_emo_sem,0.973557137302123,1,1,1,1,525605.822483425,25,B
17,1,10/4/93,23,f,212,Beth took the photo,Sensible,edin_semantics,emo_sem_emo_sem,2.16127298295032,1,1,1,1,525608.727498807,53,B
17,1,10/4/93,23,f,213,The rope pulled Emma,Non-sensible,edin_semantics,emo_sem_emo_sem,1.07960440905299,1,2,2,1,525610.550476143,120,B
17,1,10/4/93,23,f,214,Jack mixed the fruits,Sensible,edin_semantics,emo_sem_emo_sem,1.64433310413733,2,2,2,1,525612.938005137,8,B
17,1,10/4/93,23,f,215,Carl brushed the teeth,Sensible,edin_semantics,emo_sem_emo_sem,1.84399775753263,2,2,2,1,525615.525461134,72,B
17,1,10/4/93,23,f,216,Dan carried the folder,Sensible,edin_semantics,emo_sem_emo_sem,1.43277897650842,2,2,2,1,525617.701284619,30,B
17,1,10/4/93,23,f,217,The carrots chopped Fred,Non-sensible,edin_semantics,emo_sem_emo_sem,1.05582032911479,1,2,2,1,525619.50074215,102,B
17,1,10/4/93,23,f,218,Ella watched the movie,Sensible,edin_semantics,emo_sem_emo_sem,1.22077583859209,1,1,1,1,525621.464859485,33,B
17,1,10/4/93,23,f,219,Carl sold the sofa,Sensible,edin_semantics,emo_sem_emo_sem,0.855883703799918,1,2,2,1,525623.064417916,38,B
17,1,10/4/93,23,f,220,The rice stored Fred,Non-sensible,edin_semantics,emo_sem_emo_sem,1.7264054666739,1,1,1,1,525625.53423191,127,B
17,1,10/4/93,23,f,221,Rob stroked the fur,Sensible,edin_semantics,emo_sem_emo_sem,4.03187652991619,2,1,1,1,525630.309263597,41,B
17,1,10/4/93,23,f,222,Dan whisked the eggs,Sensible,edin_semantics,emo_sem_emo_sem,2.25573225901462,2,2,2,1,525633.308372953,62,B
17,1,10/4/93,23,f,223,Ewan wrote the story,Sensible,edin_semantics,emo_sem_emo_sem,0.985577465849929,1,2,2,1,525635.037299613,74,B
17,1,10/4/93,23,f,224,The opera watched Adam,Non-sensible,edin_semantics,emo_sem_emo_sem,2.83184015995357,2,2,2,1,525638.612673382,108,B
17,1,10/4/93,23,f,225,Matt offered the money,Sensible,edin_semantics,emo_sem_emo_sem,7.71267504990101,2,1,1,1,525647.068947468,9,B
17,1,10/4/93,23,f,226,Jon cut the paper,Sensible,edin_semantics,emo_sem_emo_sem,1.03263952687848,2,2,2,1,525648.844880063,20,B
17,1,10/4/93,23,f,227,The dress wore Kate,Non-sensible,edin_semantics,emo_sem_emo_sem,1.89085904660169,2,2,2,1,525651.479374387,100,B
17,1,10/4/93,23,f,228,Jon trimmed the bushes,Sensible,edin_semantics,emo_sem_emo_sem,1.70314448385034,2,2,2,1,525653.925725344,32,B
17,1,10/4/93,23,f,229,The hair trimmed Bill,Non-sensible,edin_semantics,emo_sem_emo_sem,1.02102875977289,1,1,1,1,525655.689899961,107,B
17,1,10/4/93,23,f,230,The fat chewed Adam,Non-sensible,edin_semantics,emo_sem_emo_sem,0.950385314994492,1,2,2,1,525657.38350586,106,B
17,1,10/4/93,23,f,231,The kettle carried John,Non-sensible,edin_semantics,emo_sem_emo_sem,1.65573123260401,1,1,1,1,525659.782789304,105,B
17,1,10/4/93,23,f,232,The curtains measured Rob,Non-sensible,edin_semantics,emo_sem_emo_sem,1.03219436504878,1,2,2,1,525661.558737614,126,B
17,1,10/4/93,23,f,233,Erin posted the card,Sensible,edin_semantics,emo_sem_emo_sem,0.985584842390381,2,2,2,1,525663.287618731,36,B
17,1,10/4/93,23,f,234,The pillow hugged Kate,Non-sensible,edin_semantics,emo_sem_emo_sem,2.79673813201953,2,2,2,1,525666.827740374,86,B
17,1,10/4/93,23,f,235,The turnip mashed Ella,Non-sensible,edin_semantics,emo_sem_emo_sem,1.22091727680527,1,1,1,1,525668.791854503,103,B
17,1,10/4/93,23,f,236,Jane punched the wall,Sensible,edin_semantics,emo_sem_emo_sem,1.03304588119499,1,2,2,1,525670.568328475,50,B
17,1,10/4/93,23,f,237,The report wrote Alex,Non-sensible,edin_semantics,emo_sem_emo_sem,1.031922713737,1,1,1,1,525672.343735728,149,B
17,1,10/4/93,23,f,238,Sam tidied the room,Sensible,edin_semantics,emo_sem_emo_sem,1.06784161995165,1,2,2,1,525674.1549522,2,B
17,1,10/4/93,23,f,239,Amy hugged the tree,Sensible,edin_semantics,emo_sem_emo_sem,2.23212585889269,2,1,1,1,525677.130547844,11,B
17,1,10/4/93,23,f,240,The garage tidied Erin,Non-sensible,edin_semantics,emo_sem_emo_sem,0.962026550550945,1,1,1,1,525678.835903062,77,B
17,1,10/4/93,23,f,241,Luke climbed the hill,Sensible,edin_semantics,emo_sem_emo_sem,1.11485910054762,2,2,2,1,525680.694173898,68,B
17,1,10/4/93,23,f,242,The ticket took Tim,Non-sensible,edin_semantics,emo_sem_emo_sem,0.796801955555566,2,2,2,1,525682.234901705,128,B
17,1,10/4/93,23,f,243,The cream whisked Tom,Non-sensible,edin_semantics,emo_sem_emo_sem,1.89084589702543,2,1,1,1,525684.869392181,137,B
17,1,10/4/93,23,f,244,Andy grated the cheese,Sensible,edin_semantics,emo_sem_emo_sem,0.950442403554916,1,1,1,1,525686.563051962,65,B
17,1,10/4/93,23,f,245,Max lent the bucket,Sensible,edin_semantics,emo_sem_emo_sem,0.926519451080821,1,1,1,1,525688.233085458,19,B
17,1,10/4/93,23,f,246,Phil chopped the herbs,Sensible,edin_semantics,emo_sem_emo_sem,3.51396967505571,2,1,1,1,525692.490639737,27,B
17,1,10/4/93,23,f,247,Jeff watered the garden,Sensible,edin_semantics,emo_sem_emo_sem,0.997352121630684,2,2,2,1,525694.23129551,54,B
17,1,10/4/93,23,f,248,The rose kissed Hugh,Non-sensible,edin_semantics,emo_sem_emo_sem,1.29094686033204,2,2,2,1,525696.265977393,98,B
17,1,10/4/93,23,f,249,Lily dented the lorry,Sensible,edin_semantics,emo_sem_emo_sem,0.9028790545417,1,1,1,1,525697.912544644,71,B
17,1,10/4/93,23,f,250,Bill counted the sheets,Sensible,edin_semantics,emo_sem_emo_sem,1.65597818838432,2,2,2,1,525700.311834823,48,B
17,1,10/4/93,23,f,251,The wallet carried Leo,Non-sensible,edin_semantics,emo_sem_emo_sem,1.0442172595067,1,2,2,1,525702.099528603,150,B
17,1,10/4/93,23,f,252,Matt kicked the bike,Sensible,edin_semantics,emo_sem_emo_sem,0.76214156136848,1,1,1,1,525703.604982476,39,B
17,1,10/4/93,23,f,253,Liz scrubbed the bowl,Sensible,edin_semantics,emo_sem_emo_sem,2.53807575954124,2,2,2,1,525706.886346172,56,B
17,1,10/4/93,23,f,254,The hair brushed Dan,Non-sensible,edin_semantics,emo_sem_emo_sem,1.42005915392656,1,1,1,1,525709.050386341,147,B
17,1,10/4/93,23,f,255,Mary iced the cake,Sensible,edin_semantics,emo_sem_emo_sem,1.18555193638895,1,2,2,1,525710.979250589,44,B
17,1,10/4/93,23,f,256,Max kissed the mirror,Sensible,edin_semantics,emo_sem_emo_sem,1.23201488913037,2,1,1,1,525712.955119809,23,B
17,1,10/4/93,23,f,257,Beth wiped the table,Sensible,edin_semantics,emo_sem_emo_sem,1.56194418924861,1,2,2,1,525715.260288431,40,B
17,1,10/4/93,23,f,258,Jen weighed the flour,Sensible,edin_semantics,emo_sem_emo_sem,5.05450825660955,2,2,2,1,525721.058554802,64,B
17,1,10/4/93,23,f,259,Tim cleaned the floor,Sensible,edin_semantics,emo_sem_emo_sem,1.6090816197684,1,1,1,1,525723.410805691,5,B
17,1,10/4/93,23,f,260,The rope pulled Andy,Non-sensible,edin_semantics,emo_sem_emo_sem,1.63253246981185,2,2,2,1,525725.786551369,148,B
17,1,10/4/93,23,f,261,Ryan carried the gun,Sensible,edin_semantics,emo_sem_emo_sem,1.30355475109536,1,1,1,1,525727.83342645,75,B
17,1,10/4/93,23,f,262,Tom dialed the number,Sensible,edin_semantics,emo_sem_emo_sem,0.961649702629074,1,1,2,0,525729.538377238,63,B
17,1,10/4/93,23,f,263,Josh ironed the shirt,Sensible,edin_semantics,emo_sem_emo_sem,7.4073845531093,2,1,1,1,525737.688874293,55,B
17,1,10/4/93,23,f,264,Will mashed the potatoes,Sensible,edin_semantics,emo_sem_emo_sem,1.16148273495492,2,2,2,1,525739.594176079,28,B
17,1,10/4/93,23,f,265,Phil sniffed the milk,Sensible,edin_semantics,emo_sem_emo_sem,1.65575047594029,1,2,2,1,525741.993481331,18,B
17,1,10/4/93,23,f,266,Jen fixed the laptop,Sensible,edin_semantics,emo_sem_emo_sem,1.31429283425678,1,1,1,1,525744.051652551,37,B
17,1,10/4/93,23,f,267,The socks knitted Ryan,Non-sensible,edin_semantics,emo_sem_emo_sem,1.37371422664728,1,1,1,1,525746.168657921,141,B
17,1,10/4/93,23,f,268,The radio fixed Luke,Non-sensible,edin_semantics,emo_sem_emo_sem,3.70260887860786,1,2,2,1,525750.614403997,112,B
17,1,10/4/93,23,f,269,The problem solved Phil,Non-sensible,edin_semantics,emo_sem_emo_sem,0.950157281942666,1,1,1,1,525752.30802946,109,B
17,1,10/4/93,23,f,270,The donut iced Joe,Non-sensible,edin_semantics,emo_sem_emo_sem,2.00839841843117,2,1,1,1,525755.060143978,119,B
17,1,10/4/93,23,f,271,The hotline dialed Hugh,Non-sensible,edin_semantics,emo_sem_emo_sem,2.70278944494203,2,2,2,1,525758.506173893,138,B
17,1,10/4/93,23,f,272,The crate lifted Amy,Non-sensible,edin_semantics,emo_sem_emo_sem,2.38505270099267,2,2,2,1,525761.634625179,144,B
17,1,10/4/93,23,f,273,Matt pushed the trolley,Sensible,edin_semantics,emo_sem_emo_sem,1.13847480155528,2,2,2,1,525763.516412933,26,B
17,1,10/4/93,23,f,274,Luke swallowed the pill,Sensible,edin_semantics,emo_sem_emo_sem,0.855953300371766,1,2,2,1,525765.115955648,22,B
17,1,10/4/93,23,f,275,Jon polished the coins,Sensible,edin_semantics,emo_sem_emo_sem,1.66763866727706,1,1,1,1,525767.527009899,29,B
17,1,10/4/93,23,f,276,Jen searched the room,Sensible,edin_semantics,emo_sem_emo_sem,2.67926867748611,2,2,2,1,525770.949523536,10,B
17,1,10/4/93,23,f,277,The report filed Ian,Non-sensible,edin_semantics,emo_sem_emo_sem,3.39622215495911,2,1,1,1,525775.089432605,99,B
17,1,10/4/93,23,f,278,The monitor punched Erin,Non-sensible,edin_semantics,emo_sem_emo_sem,1.24428473925218,2,1,1,1,525777.077058199,125,B
17,1,10/4/93,23,f,279,Kate lifted the box,Sensible,edin_semantics,emo_sem_emo_sem,1.35008890414611,1,1,1,1,525779.170570064,69,B
17,1,10/4/93,23,f,280,The desk wiped Lucy,Non-sensible,edin_semantics,emo_sem_emo_sem,0.985832118894905,1,1,1,1,525780.899438994,115,B
17,1,10/4/93,23,f,281,The debt paid Zoe,Non-sensible,edin_semantics,emo_sem_emo_sem,0.973840334452689,2,2,2,1,525782.616610241,134,B
17,1,10/4/93,23,f,282,The radio got Ben,Non-sensible,edin_semantics,emo_sem_emo_sem,0.844681536080316,1,2,2,1,525784.204326343,88,B
17,1,10/4/93,23,f,283,Jon jumped the fence,Sensible,edin_semantics,emo_sem_emo_sem,1.15035240899306,1,1,1,1,525786.097878811,17,B
17,1,10/4/93,23,f,284,The internet searched Max,Non-sensible,edin_semantics,emo_sem_emo_sem,3.7610270534642,2,1,1,1,525790.60243819,85,B
17,1,10/4/93,23,f,285,The door kicked Max,Non-sensible,edin_semantics,emo_sem_emo_sem,1.00899880949873,2,2,2,1,525792.354825643,114,B
17,1,10/4/93,23,f,286,Tom knitted the scarf,Sensible,edin_semantics,emo_sem_emo_sem,1.16186856315471,1,2,2,1,525794.260174896,66,B
17,1,10/4/93,23,f,287,Kate served the dish,Sensible,edin_semantics,emo_sem_emo_sem,0.949734570691362,1,2,2,1,525795.953753534,70,B
17,1,10/4/93,23,f,288,The plate licked Jane,Non-sensible,edin_semantics,emo_sem_emo_sem,0.844380057766102,1,2,2,1,525797.541588624,96,B
17,1,10/4/93,23,f,289,Ryan entered the room,Sensible,edin_semantics,emo_sem_emo_sem,1.03231848438736,2,2,2,1,525799.317450019,58,B
17,1,10/4/93,23,f,290,The steak ate Mike,Non-sensible,edin_semantics,emo_sem_emo_sem,1.07955341425259,2,2,2,1,525801.140448844,142,B
17,1,10/4/93,23,f,291,Mary visited the museum,Sensible,edin_semantics,emo_sem_emo_sem,0.820180322509259,2,2,2,1,525802.704688759,16,B
17,1,10/4/93,23,f,292,The dessert served Fred,Non-sensible,edin_semantics,emo_sem_emo_sem,0.93849103001412,1,1,1,1,525804.386520965,145,B
17,1,10/4/93,23,f,293,The invite mailed Ian,Non-sensible,edin_semantics,emo_sem_emo_sem,8.80668403266463,2,1,1,1,525813.936597168,89,B
17,1,10/4/93,23,f,294,Amy measured the thread,Sensible,edin_semantics,emo_sem_emo_sem,1.25517612753902,1,1,1,1,525815.93604232,51,B
17,1,10/4/93,23,f,295,Hugh pulled the lever,Sensible,edin_semantics,emo_sem_emo_sem,0.914090202306397,1,1,1,1,525817.594337081,45,B
17,1,10/4/93,23,f,296,The blanket stroked Ryan,Non-sensible,edin_semantics,emo_sem_emo_sem,1.76082211232279,2,2,2,1,525820.099465742,116,B
17,1,10/4/93,23,f,297,The hedge jumped Sara,Non-sensible,edin_semantics,emo_sem_emo_sem,1.77298740716651,2,2,2,1,525822.616379642,92,B
17,1,10/4/93,23,f,298,The bath cleaned Jack,Non-sensible,edin_semantics,emo_sem_emo_sem,1.6557280253619,2,2,2,1,525825.015626844,80,B
17,1,10/4/93,23,f,299,Erin crushed the garlic,Sensible,edin_semantics,emo_sem_emo_sem,1.04441578616388,2,2,2,1,525826.80333634,6,B
17,1,10/4/93,23,f,300,The ice crushed Josh,Non-sensible,edin_semantics,emo_sem_emo_sem,4.18400188838132,2,1,1,1,525831.731275305,81,B
