subject_column,AssignedList_column,subject_dob_column,subject_age_column,subject_gender_column,trialnum_column,Stim_column,Type_column,Experiment_column,OrderGroup_column,ReactionTime_column,StimSide_column,StimPosition_column,Response_column,Valid_column,TrialEndSecs_column,PairID_column,List_column
18,2,18/10/94,21,m,1,The garden watered Jeff,Non-sensible,edin_semantics,sem_emo_sem_emo,2.14463137532584,2,2,2,1,527902.804564383,54,A
18,2,18/10/94,21,m,2,The jar labeled Liz,Non-sensible,edin_semantics,sem_emo_sem_emo,1.07977278798353,2,1,1,1,527904.627558718,61,A
18,2,18/10/94,21,m,3,Joe entered the office,Sensible,edin_semantics,sem_emo_sem_emo,0.879963489016518,2,1,1,1,527906.250582431,133,A
18,2,18/10/94,21,m,4,Kate wore the dress,Sensible,edin_semantics,sem_emo_sem_emo,0.856689677457325,2,2,2,1,527907.850079924,100,A
18,2,18/10/94,21,m,5,Bill trimmed the hair,Sensible,edin_semantics,sem_emo_sem_emo,1.15006664593238,2,1,1,1,527909.743681462,107,A
18,2,18/10/94,21,m,6,Erin tidied the garage,Sensible,edin_semantics,sem_emo_sem_emo,1.10290099191479,1,1,1,1,527911.590149097,77,A
18,2,18/10/94,21,m,7,Fred served the dessert,Sensible,edin_semantics,sem_emo_sem_emo,1.2678343715379,2,1,1,1,527913.601308929,145,A
18,2,18/10/94,21,m,8,The book read Sean,Non-sensible,edin_semantics,sem_emo_sem_emo,1.02125551004428,1,2,2,1,527915.365473924,4,A
18,2,18/10/94,21,m,9,Fred lent the car,Sensible,edin_semantics,sem_emo_sem_emo,1.24451116879936,1,2,2,1,527917.353143778,94,A
18,2,18/10/94,21,m,10,The kettle got Lily,Non-sensible,edin_semantics,sem_emo_sem_emo,1.17331961076707,2,1,1,1,527919.270211882,13,A
18,2,18/10/94,21,m,11,The lolly sucked Leah,Non-sensible,edin_semantics,sem_emo_sem_emo,1.87962993851397,2,2,2,1,527921.892935078,12,A
18,2,18/10/94,21,m,12,Josh crushed the ice,Sensible,edin_semantics,sem_emo_sem_emo,0.808859808719717,1,1,1,1,527923.445430165,81,A
18,2,18/10/94,21,m,13,The floor cleaned Tim,Non-sensible,edin_semantics,sem_emo_sem_emo,1.12687141110655,2,1,1,1,527925.315469883,5,A
18,2,18/10/94,21,m,14,Lucy counted the shoes,Sensible,edin_semantics,sem_emo_sem_emo,0.997867842204869,1,1,1,1,527927.056108658,123,A
18,2,18/10/94,21,m,15,Ian labeled the box,Sensible,edin_semantics,sem_emo_sem_emo,0.880561955738813,1,2,2,1,527928.679126919,136,A
18,2,18/10/94,21,m,16,The cake iced Mary,Non-sensible,edin_semantics,sem_emo_sem_emo,1.09146662184503,1,2,2,1,527930.513930226,44,A
18,2,18/10/94,21,m,17,Kate hugged the pillow,Sensible,edin_semantics,sem_emo_sem_emo,1.10266429930925,2,2,2,1,527932.360392089,86,A
18,2,18/10/94,21,m,18,Ben climbed the stairs,Sensible,edin_semantics,sem_emo_sem_emo,1.13820507458877,1,1,1,1,527934.2422055,143,A
18,2,18/10/94,21,m,19,The table wiped Beth,Non-sensible,edin_semantics,sem_emo_sem_emo,1.59733390470501,2,2,2,1,527936.582684941,40,A
18,2,18/10/94,21,m,20,The lever pulled Hugh,Non-sensible,edin_semantics,sem_emo_sem_emo,1.93822707608342,1,1,1,1,527939.264201557,45,A
18,2,18/10/94,21,m,21,The shirt ironed Josh,Non-sensible,edin_semantics,sem_emo_sem_emo,1.30318624188658,2,1,1,1,527941.310707807,55,A
18,2,18/10/94,21,m,22,Luke fixed the radio,Sensible,edin_semantics,sem_emo_sem_emo,1.27994065370876,2,2,2,1,527943.333601564,112,A
18,2,18/10/94,21,m,23,Jack cleaned the bath,Sensible,edin_semantics,sem_emo_sem_emo,0.962016287492588,1,2,2,1,527945.038912202,80,A
18,2,18/10/94,21,m,24,The sheets counted Bill,Non-sensible,edin_semantics,sem_emo_sem_emo,1.38538304436952,1,2,2,1,527947.167741619,48,A
18,2,18/10/94,21,m,25,Tom grated the carrots,Sensible,edin_semantics,sem_emo_sem_emo,1.06756291282363,1,2,2,1,527948.978903568,140,A
18,2,18/10/94,21,m,26,Ian pushed the button,Sensible,edin_semantics,sem_emo_sem_emo,0.985765408724546,1,1,1,1,527950.707855565,101,A
18,2,18/10/94,21,m,27,The papers filed Lara,Non-sensible,edin_semantics,sem_emo_sem_emo,0.727076416369528,1,2,2,1,527952.178009524,24,A
18,2,18/10/94,21,m,28,Lucy cut the ribbon,Sensible,edin_semantics,sem_emo_sem_emo,0.950428933254443,2,1,1,1,527953.871550638,95,A
18,2,18/10/94,21,m,29,The scarf knitted Tom,Non-sensible,edin_semantics,sem_emo_sem_emo,0.903690801234916,2,2,2,1,527955.518193259,66,A
18,2,18/10/94,21,m,30,The room tidied Sam,Non-sensible,edin_semantics,sem_emo_sem_emo,1.67936906334944,2,2,2,1,527957.940957701,2,A
18,2,18/10/94,21,m,31,Jack posted the gift,Sensible,edin_semantics,sem_emo_sem_emo,0.997009911574423,1,1,1,1,527959.681635283,111,A
18,2,18/10/94,21,m,32,Andy pulled the rope,Sensible,edin_semantics,sem_emo_sem_emo,0.903287654044107,2,2,2,1,527961.3282051,148,A
18,2,18/10/94,21,m,33,Tim took the ticket,Sensible,edin_semantics,sem_emo_sem_emo,1.00913607841358,2,2,2,1,527963.080589025,128,A
18,2,18/10/94,21,m,34,Sam sucked the candy,Sensible,edin_semantics,sem_emo_sem_emo,1.04472271678969,2,1,1,1,527964.868293068,87,A
18,2,18/10/94,21,m,35,The thread measured Amy,Non-sensible,edin_semantics,sem_emo_sem_emo,1.04458576871548,1,1,1,1,527966.655991659,51,A
18,2,18/10/94,21,m,36,Lucy wiped the desk,Sensible,edin_semantics,sem_emo_sem_emo,1.16216330626048,2,1,1,1,527968.561320065,115,A
18,2,18/10/94,21,m,37,The folder carried Dan,Non-sensible,edin_semantics,sem_emo_sem_emo,0.997496446478181,1,2,2,1,527970.3019768,30,A
18,2,18/10/94,21,m,38,Jane licked the plate,Sensible,edin_semantics,sem_emo_sem_emo,1.55005086644087,2,2,2,1,527972.595408292,96,A
18,2,18/10/94,21,m,39,The hill climbed Luke,Non-sensible,edin_semantics,sem_emo_sem_emo,0.997175724711269,1,2,2,1,527974.336045784,68,A
18,2,18/10/94,21,m,40,The card posted Erin,Non-sensible,edin_semantics,sem_emo_sem_emo,0.785453218151815,2,2,2,1,527975.865014971,36,A
18,2,18/10/94,21,m,41,The bike kicked Matt,Non-sensible,edin_semantics,sem_emo_sem_emo,1.18488932528999,2,1,1,1,527977.793849712,39,A
18,2,18/10/94,21,m,42,The wine stored Leo,Non-sensible,edin_semantics,sem_emo_sem_emo,0.950755427940749,1,2,2,1,527979.487435727,52,A
18,2,18/10/94,21,m,43,The plans cancelled Ian,Non-sensible,edin_semantics,sem_emo_sem_emo,0.89144757098984,1,1,1,1,527981.122230568,7,A
18,2,18/10/94,21,m,44,The jumper wore Joe,Non-sensible,edin_semantics,sem_emo_sem_emo,1.16206965560559,2,1,1,1,527983.027551598,25,A
18,2,18/10/94,21,m,45,The puzzle solved Joe,Non-sensible,edin_semantics,sem_emo_sem_emo,0.774082671734504,1,2,2,1,527984.544757355,34,A
18,2,18/10/94,21,m,46,Adam watched the opera,Sensible,edin_semantics,sem_emo_sem_emo,1.05627094313968,1,2,2,1,527986.344232205,108,A
18,2,18/10/94,21,m,47,The wall punched Jane,Non-sensible,edin_semantics,sem_emo_sem_emo,1.38575123285409,2,2,2,1,527988.472999723,50,A
18,2,18/10/94,21,m,48,The money offered Matt,Non-sensible,edin_semantics,sem_emo_sem_emo,1.18513692251872,1,1,1,1,527990.401829653,9,A
18,2,18/10/94,21,m,49,The herbs chopped Phil,Non-sensible,edin_semantics,sem_emo_sem_emo,1.03288648242597,1,1,1,1,527992.177782453,27,A
18,2,18/10/94,21,m,50,Amy lifted the crate,Sensible,edin_semantics,sem_emo_sem_emo,1.3740493808873,2,2,2,1,527994.294792634,144,A
18,2,18/10/94,21,m,51,The movie watched Ella,Non-sensible,edin_semantics,sem_emo_sem_emo,1.00940259813797,2,1,1,1,527996.047185218,33,A
18,2,18/10/94,21,m,52,Beth washed the pan,Sensible,edin_semantics,sem_emo_sem_emo,1.10354628402274,2,2,2,1,527997.893678511,132,A
18,2,18/10/94,21,m,53,The gun carried Ryan,Non-sensible,edin_semantics,sem_emo_sem_emo,0.96213687886484,1,1,1,1,527999.599047521,75,A
18,2,18/10/94,21,m,54,Eve typed the message,Sensible,edin_semantics,sem_emo_sem_emo,0.714876804384403,2,2,2,1,528001.057443502,124,A
18,2,18/10/94,21,m,55,Erin punched the monitor,Sensible,edin_semantics,sem_emo_sem_emo,0.89120895403903,1,1,1,1,528002.692258869,125,A
18,2,18/10/94,21,m,56,The dish served Kate,Non-sensible,edin_semantics,sem_emo_sem_emo,0.78568381711375,2,2,2,1,528004.221218755,70,A
18,2,18/10/94,21,m,57,The milk sniffed Phil,Non-sensible,edin_semantics,sem_emo_sem_emo,1.38547445007134,2,2,2,1,528006.349994291,18,A
18,2,18/10/94,21,m,58,The photo took Beth,Non-sensible,edin_semantics,sem_emo_sem_emo,0.914693159051239,1,1,1,1,528008.008320162,53,A
18,2,18/10/94,21,m,59,The pill swallowed Luke,Non-sensible,edin_semantics,sem_emo_sem_emo,1.10280156822409,1,2,2,1,528009.854823719,22,A
18,2,18/10/94,21,m,60,Leo passed the salt,Sensible,edin_semantics,sem_emo_sem_emo,2.44375792180654,2,2,2,1,528013.042109156,118,A
18,2,18/10/94,21,m,61,The laptop fixed Jen,Non-sensible,edin_semantics,sem_emo_sem_emo,1.57316014787648,1,1,1,1,528015.359043454,37,A
18,2,18/10/94,21,m,62,Liam mixed the nuts,Sensible,edin_semantics,sem_emo_sem_emo,1.361612114124,1,1,1,1,528017.464314259,83,A
18,2,18/10/94,21,m,63,Zoe paid the debt,Sensible,edin_semantics,sem_emo_sem_emo,1.49122922366951,1,2,2,1,528019.698933408,134,A
18,2,18/10/94,21,m,64,Leo carried the wallet,Sensible,edin_semantics,sem_emo_sem_emo,1.0320105914725,2,2,2,1,528021.47489583,150,A
18,2,18/10/94,21,m,65,The coins polished Jon,Non-sensible,edin_semantics,sem_emo_sem_emo,0.820539851672947,2,1,1,1,528023.039098541,29,A
18,2,18/10/94,21,m,66,Phil solved the problem,Sensible,edin_semantics,sem_emo_sem_emo,1.4325002693804,1,1,1,1,528025.214936138,109,A
18,2,18/10/94,21,m,67,The dishes washed Mark,Non-sensible,edin_semantics,sem_emo_sem_emo,2.36158805992454,2,1,1,1,528028.319911879,57,A
18,2,18/10/94,21,m,68,Tom offered the sweets,Sensible,edin_semantics,sem_emo_sem_emo,1.35029448673595,1,2,2,1,528030.413323357,84,A
18,2,18/10/94,21,m,69,Mike ate the steak,Sensible,edin_semantics,sem_emo_sem_emo,0.962033606483601,2,2,2,1,528032.118720911,142,A
18,2,18/10/94,21,m,70,The cheese grated Andy,Non-sensible,edin_semantics,sem_emo_sem_emo,1.26792256999761,1,1,1,1,528034.129887799,65,A
18,2,18/10/94,21,m,71,The museum visited Mary,Non-sensible,edin_semantics,sem_emo_sem_emo,1.17407747614197,1,2,2,1,528036.046994709,16,A
18,2,18/10/94,21,m,72,Josh scrubbed the pot,Sensible,edin_semantics,sem_emo_sem_emo,1.27934154553805,2,1,1,1,528038.069879486,131,A
18,2,18/10/94,21,m,73,The letter typed Phil,Non-sensible,edin_semantics,sem_emo_sem_emo,1.40949522249866,1,1,1,1,528040.222179638,49,A
18,2,18/10/94,21,m,74,The fruits mixed Jack,Non-sensible,edin_semantics,sem_emo_sem_emo,1.27935629873537,1,2,2,1,528042.245106428,8,A
18,2,18/10/94,21,m,75,Fred chopped the carrots,Sensible,edin_semantics,sem_emo_sem_emo,0.985711206798442,1,2,2,1,528043.974007751,102,A
18,2,18/10/94,21,m,76,The shelf dusted Jake,Non-sensible,edin_semantics,sem_emo_sem_emo,1.76143276644871,2,1,1,1,528046.479126149,47,A
18,2,18/10/94,21,m,77,The pen described John,Non-sensible,edin_semantics,sem_emo_sem_emo,1.27958593552466,1,2,2,1,528048.502087578,42,A
18,2,18/10/94,21,m,78,The picture painted Ryan,Non-sensible,edin_semantics,sem_emo_sem_emo,1.52589186292607,2,1,1,1,528050.771964305,35,A
18,2,18/10/94,21,m,79,The box lifted Kate,Non-sensible,edin_semantics,sem_emo_sem_emo,2.14908395463135,2,1,1,1,528053.665205993,69,A
18,2,18/10/94,21,m,80,Owen swallowed the gum,Sensible,edin_semantics,sem_emo_sem_emo,1.37244769674726,2,1,1,1,528055.782238945,97,A
18,2,18/10/94,21,m,81,Liam sliced the onion,Sensible,edin_semantics,sem_emo_sem_emo,1.0087563439738,1,2,2,1,528057.534638264,78,A
18,2,18/10/94,21,m,82,Hugh dialed the hotline,Sensible,edin_semantics,sem_emo_sem_emo,1.27916899719276,2,2,2,1,528059.557557999,138,A
18,2,18/10/94,21,m,83,The handle pulled Tim,Non-sensible,edin_semantics,sem_emo_sem_emo,1.4320717852097,2,1,1,1,528061.733385012,73,A
18,2,18/10/94,21,m,84,Ella mashed the turnip,Sensible,edin_semantics,sem_emo_sem_emo,1.8084678867599,1,1,1,1,528064.2855783,103,A
18,2,18/10/94,21,m,85,Dan brushed the hair,Sensible,edin_semantics,sem_emo_sem_emo,1.24456408782862,2,1,1,1,528066.273209347,147,A
18,2,18/10/94,21,m,86,The sofa sold Carl,Non-sensible,edin_semantics,sem_emo_sem_emo,1.3035531474743,2,2,2,1,528068.319655943,38,A
18,2,18/10/94,21,m,87,Max searched the internet,Sensible,edin_semantics,sem_emo_sem_emo,1.35056453431025,1,1,1,1,528070.413155299,85,A
18,2,18/10/94,21,m,88,Tim sniffed the perfume,Sensible,edin_semantics,sem_emo_sem_emo,1.11541651492007,1,1,1,1,528072.271418437,93,A
18,2,18/10/94,21,m,89,The bowl scrubbed Liz,Non-sensible,edin_semantics,sem_emo_sem_emo,0.856689998181537,1,2,2,1,528073.870944474,56,A
18,2,18/10/94,21,m,90,Ryan stroked the blanket,Sensible,edin_semantics,sem_emo_sem_emo,1.17414129979443,2,2,2,1,528075.788012577,116,A
18,2,18/10/94,21,m,91,The mirror kissed Max,Non-sensible,edin_semantics,sem_emo_sem_emo,0.844827464548871,1,1,1,1,528077.375747923,23,A
18,2,18/10/94,21,m,92,The juice drank Matt,Non-sensible,edin_semantics,sem_emo_sem_emo,1.03337718662806,1,2,2,1,528079.151702647,60,A
18,2,18/10/94,21,m,93,Sara jumped the hedge,Sensible,edin_semantics,sem_emo_sem_emo,0.974185110302642,1,2,2,1,528080.868840219,92,A
18,2,18/10/94,21,m,94,The potatoes mashed Will,Non-sensible,edin_semantics,sem_emo_sem_emo,1.13878012867644,2,2,2,1,528082.750614824,28,A
18,2,18/10/94,21,m,95,The fur stroked Rob,Non-sensible,edin_semantics,sem_emo_sem_emo,0.903095221030526,1,1,1,1,528084.397187848,41,A
18,2,18/10/94,21,m,96,The fence jumped Jon,Non-sensible,edin_semantics,sem_emo_sem_emo,1.10387021291535,2,1,1,1,528086.243678255,17,A
18,2,18/10/94,21,m,97,Rob measured the curtains,Sensible,edin_semantics,sem_emo_sem_emo,1.48001166142058,2,2,2,1,528088.466571177,126,A
18,2,18/10/94,21,m,98,The room searched Jen,Non-sensible,edin_semantics,sem_emo_sem_emo,1.03332458832301,2,2,2,1,528090.242502489,10,A
18,2,18/10/94,21,m,99,The spoon licked Will,Non-sensible,edin_semantics,sem_emo_sem_emo,1.16233200591523,1,1,1,1,528092.147790484,21,A
18,2,18/10/94,21,m,100,The room entered Ryan,Non-sensible,edin_semantics,sem_emo_sem_emo,1.18627869174816,2,2,2,1,528094.076625546,58,A
18,2,18/10/94,21,m,101,Joe iced the donut,Sensible,edin_semantics,sem_emo_sem_emo,1.07994693983346,1,1,1,1,528095.899615391,119,A
18,2,18/10/94,21,m,102,The lorry dented Lily,Non-sensible,edin_semantics,sem_emo_sem_emo,1.45657845109236,2,1,1,1,528098.09894938,71,A
18,2,18/10/94,21,m,103,The tomato sliced Liz,Non-sensible,edin_semantics,sem_emo_sem_emo,1.3506739003351,1,1,1,1,528100.192445529,3,A
18,2,18/10/94,21,m,104,Jay sold the bed,Sensible,edin_semantics,sem_emo_sem_emo,1.17401172814425,1,1,1,1,528102.109509142,113,A
18,2,18/10/94,21,m,105,Luke watered the plants,Sensible,edin_semantics,sem_emo_sem_emo,0.986319936579093,2,1,1,1,528103.838428425,129,A
18,2,18/10/94,21,m,106,Adam chewed the fat,Sensible,edin_semantics,sem_emo_sem_emo,1.24389891105238,2,2,2,1,528105.826058831,106,A
18,2,18/10/94,21,m,107,The bucket lent Max,Non-sensible,edin_semantics,sem_emo_sem_emo,3.06723738019355,2,1,1,1,528109.636667535,19,A
18,2,18/10/94,21,m,108,Anna polished the trophy,Sensible,edin_semantics,sem_emo_sem_emo,1.18565456732176,2,2,2,1,528111.565507728,104,A
18,2,18/10/94,21,m,109,The towels passed Phil,Non-sensible,edin_semantics,sem_emo_sem_emo,1.40942177723628,2,1,1,1,528113.717802107,43,A
18,2,18/10/94,21,m,110,Eve ironed the trousers,Sensible,edin_semantics,sem_emo_sem_emo,1.00963544205297,2,2,2,1,528115.470223877,130,A
18,2,18/10/94,21,m,111,Ben got the radio,Sensible,edin_semantics,sem_emo_sem_emo,1.38611621421296,1,2,2,1,528117.599010958,88,A
18,2,18/10/94,21,m,112,Erin described the church,Sensible,edin_semantics,sem_emo_sem_emo,0.727251530508511,2,1,1,1,528119.069106867,117,A
18,2,18/10/94,21,m,113,Jay painted the portrait,Sensible,edin_semantics,sem_emo_sem_emo,0.774147136835381,1,2,2,1,528120.586346941,110,A
18,2,18/10/94,21,m,114,Liz weighed the sugar,Sensible,edin_semantics,sem_emo_sem_emo,0.891890487633646,1,1,1,1,528122.221147234,139,A
18,2,18/10/94,21,m,115,Hugh kissed the rose,Sensible,edin_semantics,sem_emo_sem_emo,0.90338996425271,1,2,2,1,528123.867709996,98,A
18,2,18/10/94,21,m,116,The tree hugged Amy,Non-sensible,edin_semantics,sem_emo_sem_emo,1.98593988141511,2,1,1,1,528126.596287069,11,A
18,2,18/10/94,21,m,117,Ian filed the report,Sensible,edin_semantics,sem_emo_sem_emo,1.04462874541059,2,1,1,1,528128.384008431,99,A
18,2,18/10/94,21,m,118,The bill paid Mike,Non-sensible,edin_semantics,sem_emo_sem_emo,1.4801454024855,1,1,1,1,528130.606878262,59,A
18,2,18/10/94,21,m,119,The paper cut Jon,Non-sensible,edin_semantics,sem_emo_sem_emo,1.04457999567967,2,2,2,1,528132.394581343,20,A
18,2,18/10/94,21,m,120,Max kicked the door,Sensible,edin_semantics,sem_emo_sem_emo,1.245102579589,1,2,2,1,528134.382196354,114,A
18,2,18/10/94,21,m,121,Emma pulled the rope,Sensible,edin_semantics,sem_emo_sem_emo,0.998004790279083,2,2,2,1,528136.122839298,120,A
18,2,18/10/94,21,m,122,Tom visited the hospital,Sensible,edin_semantics,sem_emo_sem_emo,1.37410101713613,2,1,1,1,528138.239865194,91,A
18,2,18/10/94,21,m,123,Rose built the shed,Sensible,edin_semantics,sem_emo_sem_emo,1.02094505145215,2,1,1,1,528140.004033075,121,A
18,2,18/10/94,21,m,124,The number dialed Tom,Non-sensible,edin_semantics,sem_emo_sem_emo,1.57389716641046,1,1,1,1,528142.321012595,63,A
18,2,18/10/94,21,m,125,Phil cancelled the party,Sensible,edin_semantics,sem_emo_sem_emo,1.18618151312694,1,2,2,1,528144.249868504,82,A
18,2,18/10/94,21,m,126,The lesson taught Eve,Non-sensible,edin_semantics,sem_emo_sem_emo,2.62052497011609,2,1,1,1,528147.613535803,15,A
18,2,18/10/94,21,m,127,Tom whisked the cream,Sensible,edin_semantics,sem_emo_sem_emo,1.50318604940549,1,1,1,1,528149.859907799,137,A
18,2,18/10/94,21,m,128,The bushes trimmed Jon,Non-sensible,edin_semantics,sem_emo_sem_emo,1.1036928538233,2,2,2,1,528151.706433485,32,A
18,2,18/10/94,21,m,129,Jay squeezed the lemon,Sensible,edin_semantics,sem_emo_sem_emo,1.03313247591723,2,2,2,1,528153.48235742,76,A
18,2,18/10/94,21,m,130,John carried the kettle,Sensible,edin_semantics,sem_emo_sem_emo,1.85649596143048,2,1,1,1,528156.081580055,105,A
18,2,18/10/94,21,m,131,Ian mailed the invite,Sensible,edin_semantics,sem_emo_sem_emo,1.80933030752931,1,1,1,1,528158.633809584,89,A
18,2,18/10/94,21,m,132,Alex wrote the report,Sensible,edin_semantics,sem_emo_sem_emo,1.80905192100909,1,1,1,1,528161.185925577,149,A
18,2,18/10/94,21,m,133,The flour weighed Jen,Non-sensible,edin_semantics,sem_emo_sem_emo,1.33890886628069,2,2,2,1,528163.267696461,64,A
18,2,18/10/94,21,m,134,The teeth brushed Carl,Non-sensible,edin_semantics,sem_emo_sem_emo,3.2796353265876,1,2,2,1,528167.289986299,72,A
18,2,18/10/94,21,m,135,Jack drank the beer,Sensible,edin_semantics,sem_emo_sem_emo,1.25603534106631,2,1,1,1,528169.289413169,135,A
18,2,18/10/94,21,m,136,The ball squeezed Josh,Non-sensible,edin_semantics,sem_emo_sem_emo,1.06802378979046,1,1,1,1,528171.100625151,1,A
18,2,18/10/94,21,m,137,Alex dusted the house,Sensible,edin_semantics,sem_emo_sem_emo,0.880374333471991,2,2,2,1,528172.72366073,122,A
18,2,18/10/94,21,m,138,The story wrote Ewan,Non-sensible,edin_semantics,sem_emo_sem_emo,1.10378297651187,2,2,2,1,528174.570167173,74,A
18,2,18/10/94,21,m,139,Ryan knitted the socks,Sensible,edin_semantics,sem_emo_sem_emo,1.06811198825017,1,1,1,1,528176.381391983,141,A
18,2,18/10/94,21,m,140,Josh taught the rules,Sensible,edin_semantics,sem_emo_sem_emo,1.97408921457827,2,2,2,1,528179.098205626,90,A
18,2,18/10/94,21,m,141,The garlic crushed Erin,Non-sensible,edin_semantics,sem_emo_sem_emo,1.23324004618917,2,2,2,1,528181.074091203,6,A
18,2,18/10/94,21,m,142,The house built Kate,Non-sensible,edin_semantics,sem_emo_sem_emo,1.92695948120672,1,2,2,1,528183.743837012,46,A
18,2,18/10/94,21,m,143,Fred stored the rice,Sensible,edin_semantics,sem_emo_sem_emo,2.32595908618532,2,1,1,1,528186.813543308,127,A
18,2,18/10/94,21,m,144,The trolley pushed Matt,Non-sensible,edin_semantics,sem_emo_sem_emo,1.33867955033202,1,2,2,1,528188.895314833,26,A
18,2,18/10/94,21,m,145,The eggs whisked Dan,Non-sensible,edin_semantics,sem_emo_sem_emo,0.96231936942786,2,2,2,1,528190.600649846,62,A
18,2,18/10/94,21,m,146,The ham ate Tim,Non-sensible,edin_semantics,sem_emo_sem_emo,2.24402784113772,1,1,1,1,528193.587997696,67,A
18,2,18/10/94,21,m,147,Ian dented the bowl,Sensible,edin_semantics,sem_emo_sem_emo,2.07920863840263,2,2,2,1,528196.410625446,146,A
18,2,18/10/94,21,m,148,The parcel mailed Rob,Non-sensible,edin_semantics,sem_emo_sem_emo,1.98553096118849,2,2,2,1,528199.139289114,14,A
18,2,18/10/94,21,m,149,The toffee chewed Ben,Non-sensible,edin_semantics,sem_emo_sem_emo,1.03206896281336,1,1,1,1,528200.915195409,31,A
18,2,18/10/94,21,m,150,Luke read the poster,Sensible,edin_semantics,sem_emo_sem_emo,1.70330452395137,2,1,1,1,528203.361524878,79,A
18,2,18/10/94,21,m,151,The house dusted Alex,Non-sensible,edin_semantics,sem_emo_sem_emo,7.60094683466014,1,1,1,1,528224.496374883,122,B
18,2,18/10/94,21,m,152,Erin posted the card,Sensible,edin_semantics,sem_emo_sem_emo,4.37166641862132,2,1,1,1,528229.612488967,36,B
18,2,18/10/94,21,m,153,The cream whisked Tom,Non-sensible,edin_semantics,sem_emo_sem_emo,2.14898196514696,1,2,2,1,528232.505723279,137,B
18,2,18/10/94,21,m,154,Luke climbed the hill,Sensible,edin_semantics,sem_emo_sem_emo,2.74812249513343,2,1,1,1,528235.998783823,68,B
18,2,18/10/94,21,m,155,The rope pulled Emma,Non-sensible,edin_semantics,sem_emo_sem_emo,1.25561647850554,1,1,1,1,528237.998220315,120,B
18,2,18/10/94,21,m,156,Jen weighed the flour,Sensible,edin_semantics,sem_emo_sem_emo,1.46651922015008,2,1,1,1,528240.209323829,64,B
18,2,18/10/94,21,m,157,The gift posted Jack,Non-sensible,edin_semantics,sem_emo_sem_emo,1.30151207454037,2,2,2,1,528242.255755672,111,B
18,2,18/10/94,21,m,158,The plants watered Luke,Non-sensible,edin_semantics,sem_emo_sem_emo,1.52514875074849,2,2,2,1,528244.525651963,129,B
18,2,18/10/94,21,m,159,Jane punched the wall,Sensible,edin_semantics,sem_emo_sem_emo,1.03151058638468,1,1,1,1,528246.301593217,50,B
18,2,18/10/94,21,m,160,Kate lifted the box,Sensible,edin_semantics,sem_emo_sem_emo,1.21990026836284,2,2,2,1,528248.265721778,69,B
18,2,18/10/94,21,m,161,Sam tidied the room,Sensible,edin_semantics,sem_emo_sem_emo,1.43140981555916,1,1,1,1,528250.441509663,2,B
18,2,18/10/94,21,m,162,The fat chewed Adam,Non-sensible,edin_semantics,sem_emo_sem_emo,1.51408449350856,1,1,1,1,528252.699705385,106,B
18,2,18/10/94,21,m,163,The curtains measured Rob,Non-sensible,edin_semantics,sem_emo_sem_emo,0.901730550220236,1,1,1,1,528254.34627424,126,B
18,2,18/10/94,21,m,164,Jon polished the coins,Sensible,edin_semantics,sem_emo_sem_emo,1.41986255149823,2,2,2,1,528256.510317296,29,B
18,2,18/10/94,21,m,165,Will licked the spoon,Sensible,edin_semantics,sem_emo_sem_emo,1.64342995185871,2,2,2,1,528258.897839554,21,B
18,2,18/10/94,21,m,166,The garage tidied Erin,Non-sensible,edin_semantics,sem_emo_sem_emo,3.61926870327443,2,2,2,1,528263.261249314,77,B
18,2,18/10/94,21,m,167,Liz labeled the jar,Sensible,edin_semantics,sem_emo_sem_emo,1.79652934218757,1,2,2,1,528265.801619516,61,B
18,2,18/10/94,21,m,168,Phil typed the letter,Sensible,edin_semantics,sem_emo_sem_emo,1.37277643650305,2,2,2,1,528267.918646054,49,B
18,2,18/10/94,21,m,169,The trophy polished Anna,Non-sensible,edin_semantics,sem_emo_sem_emo,1.12587781529874,1,1,1,1,528269.788682565,104,B
18,2,18/10/94,21,m,170,Will mashed the potatoes,Sensible,edin_semantics,sem_emo_sem_emo,3.55996052548289,2,1,1,1,528274.093274851,28,B
18,2,18/10/94,21,m,171,The bath cleaned Jack,Non-sensible,edin_semantics,sem_emo_sem_emo,3.34856066515204,1,1,1,1,528278.186156817,80,B
18,2,18/10/94,21,m,172,The report wrote Alex,Non-sensible,edin_semantics,sem_emo_sem_emo,1.37269753892906,1,2,2,1,528280.303195222,149,B
18,2,18/10/94,21,m,173,The dessert served Fred,Non-sensible,edin_semantics,sem_emo_sem_emo,1.66705784015357,2,2,2,1,528282.714216118,145,B
18,2,18/10/94,21,m,174,Josh ironed the shirt,Sensible,edin_semantics,sem_emo_sem_emo,2.57242569513619,1,2,2,1,528286.030867539,55,B
18,2,18/10/94,21,m,175,Ryan painted the picture,Sensible,edin_semantics,sem_emo_sem_emo,1.76058445754461,1,2,2,1,528288.536019934,35,B
18,2,18/10/94,21,m,176,Leah sucked the lolly,Sensible,edin_semantics,sem_emo_sem_emo,1.06662576401141,1,1,1,1,528290.347183165,12,B
18,2,18/10/94,21,m,177,The steak ate Mike,Non-sensible,edin_semantics,sem_emo_sem_emo,1.24336939956993,2,1,1,1,528292.334845002,142,B
18,2,18/10/94,21,m,178,Dan whisked the eggs,Sensible,edin_semantics,sem_emo_sem_emo,2.00793144758791,2,1,1,1,528295.0870041,62,B
18,2,18/10/94,21,m,179,Matt kicked the bike,Sensible,edin_semantics,sem_emo_sem_emo,1.47919061384164,2,2,2,1,528297.30983801,39,B
18,2,18/10/94,21,m,180,Joe wore the jumper,Sensible,edin_semantics,sem_emo_sem_emo,1.20812657475472,2,2,2,1,528299.262179407,25,B
18,2,18/10/94,21,m,181,The plate licked Jane,Non-sensible,edin_semantics,sem_emo_sem_emo,1.16128132166341,2,1,1,1,528301.16748857,96,B
18,2,18/10/94,21,m,182,The hospital visited Tom,Non-sensible,edin_semantics,sem_emo_sem_emo,2.31365203228779,2,2,2,1,528304.225462545,91,B
18,2,18/10/94,21,m,183,The church described Erin,Non-sensible,edin_semantics,sem_emo_sem_emo,1.17239817720838,2,2,2,1,528306.142496652,117,B
18,2,18/10/94,21,m,184,Lily dented the lorry,Sensible,edin_semantics,sem_emo_sem_emo,3.1604522560956,1,2,2,1,528310.047250004,71,B
18,2,18/10/94,21,m,185,Josh squeezed the ball,Sensible,edin_semantics,sem_emo_sem_emo,1.76039426960051,2,2,2,1,528312.552327349,1,B
18,2,18/10/94,21,m,186,Tom dialed the number,Sensible,edin_semantics,sem_emo_sem_emo,2.53760814736597,2,2,2,1,528315.833724079,63,B
18,2,18/10/94,21,m,187,Rob mailed the parcel,Sensible,edin_semantics,sem_emo_sem_emo,2.1727474431973,2,1,1,1,528318.750491987,14,B
18,2,18/10/94,21,m,188,The radio fixed Luke,Non-sensible,edin_semantics,sem_emo_sem_emo,3.96020966221113,1,1,1,1,528323.454986709,112,B
18,2,18/10/94,21,m,189,The pot scrubbed Josh,Non-sensible,edin_semantics,sem_emo_sem_emo,1.51372913375963,2,2,2,1,528325.713130795,131,B
18,2,18/10/94,21,m,190,Jon trimmed the bushes,Sensible,edin_semantics,sem_emo_sem_emo,1.32486157654785,1,1,1,1,528327.783062559,32,B
18,2,18/10/94,21,m,191,The bowl dented Ian,Non-sensible,edin_semantics,sem_emo_sem_emo,1.78415942692664,2,1,1,1,528330.31173123,146,B
18,2,18/10/94,21,m,192,The box labeled Ian,Non-sensible,edin_semantics,sem_emo_sem_emo,2.20829912310001,1,1,1,1,528333.263774356,136,B
18,2,18/10/94,21,m,193,Mary iced the cake,Sensible,edin_semantics,sem_emo_sem_emo,1.03202919336036,1,1,1,1,528335.039736777,44,B
18,2,18/10/94,21,m,194,Mike paid the bill,Sensible,edin_semantics,sem_emo_sem_emo,1.17296553391498,2,2,2,1,528336.956812899,59,B
18,2,18/10/94,21,m,195,The opera watched Adam,Non-sensible,edin_semantics,sem_emo_sem_emo,1.64142672414891,1,1,1,1,528339.344268447,108,B
18,2,18/10/94,21,m,196,The bed sold Jay,Non-sensible,edin_semantics,sem_emo_sem_emo,1.4789481483167,1,2,2,1,528341.567155917,113,B
18,2,18/10/94,21,m,197,Carl brushed the teeth,Sensible,edin_semantics,sem_emo_sem_emo,1.63154881633818,2,1,1,1,528343.942938478,72,B
18,2,18/10/94,21,m,198,Erin crushed the garlic,Sensible,edin_semantics,sem_emo_sem_emo,1.96072121337056,1,1,1,1,528346.648006009,6,B
18,2,18/10/94,21,m,199,The trousers ironed Eve,Non-sensible,edin_semantics,sem_emo_sem_emo,6.48898256814573,2,1,1,1,528353.881138613,130,B
18,2,18/10/94,21,m,200,The kettle carried John,Non-sensible,edin_semantics,sem_emo_sem_emo,1.29026211949531,2,2,2,1,528355.915810874,105,B
18,2,18/10/94,21,m,201,The sugar weighed Liz,Non-sensible,edin_semantics,sem_emo_sem_emo,1.73780167079531,2,2,2,1,528358.397456934,139,B
18,2,18/10/94,21,m,202,The shoes counted Lucy,Non-sensible,edin_semantics,sem_emo_sem_emo,1.30282927851658,1,2,2,1,528360.443881079,123,B
18,2,18/10/94,21,m,203,The invite mailed Ian,Non-sensible,edin_semantics,sem_emo_sem_emo,4.900912709767,2,2,2,1,528366.089235361,89,B
18,2,18/10/94,21,m,204,The lemon squeezed Jay,Non-sensible,edin_semantics,sem_emo_sem_emo,2.31385761487763,1,1,1,1,528369.147138778,76,B
18,2,18/10/94,21,m,205,Andy grated the cheese,Sensible,edin_semantics,sem_emo_sem_emo,1.46693712065462,2,2,2,1,528371.358218558,65,B
18,2,18/10/94,21,m,206,Lily got the kettle,Sensible,edin_semantics,sem_emo_sem_emo,1.1260894916486,1,2,2,1,528373.228287462,13,B
18,2,18/10/94,21,m,207,Tim cleaned the floor,Sensible,edin_semantics,sem_emo_sem_emo,1.34988043492194,2,2,2,1,528375.321762443,5,B
18,2,18/10/94,21,m,208,The hair trimmed Bill,Non-sensible,edin_semantics,sem_emo_sem_emo,1.26713295315858,1,2,2,1,528377.332940556,107,B
18,2,18/10/94,21,m,209,Tim pulled the handle,Sensible,edin_semantics,sem_emo_sem_emo,1.51374292490073,2,2,2,1,528379.591068286,73,B
18,2,18/10/94,21,m,210,The hotline dialed Hugh,Non-sensible,edin_semantics,sem_emo_sem_emo,2.58421446266584,1,1,1,1,528382.919487628,138,B
18,2,18/10/94,21,m,211,Max lent the bucket,Sensible,edin_semantics,sem_emo_sem_emo,1.20758808299433,1,2,2,1,528384.871811706,19,B
18,2,18/10/94,21,m,212,The rules taught Josh,Non-sensible,edin_semantics,sem_emo_sem_emo,1.43112020392437,1,1,1,1,528387.047649302,90,B
18,2,18/10/94,21,m,213,Ian cancelled the plans,Sensible,edin_semantics,sem_emo_sem_emo,3.56056187872309,2,2,2,1,528391.352248003,7,B
18,2,18/10/94,21,m,214,Amy measured the thread,Sensible,edin_semantics,sem_emo_sem_emo,0.808307846542448,1,2,2,1,528392.904748862,51,B
18,2,18/10/94,21,m,215,Dan carried the folder,Sensible,edin_semantics,sem_emo_sem_emo,1.17299439897761,1,1,1,1,528394.8218144,30,B
18,2,18/10/94,21,m,216,The onion sliced Liam,Non-sensible,edin_semantics,sem_emo_sem_emo,1.10222394845914,1,1,1,1,528396.668321163,78,B
18,2,18/10/94,21,m,217,The gum swallowed Owen,Non-sensible,edin_semantics,sem_emo_sem_emo,1.03209397918545,1,2,2,1,528398.444240287,97,B
18,2,18/10/94,21,m,218,Tim ate the ham,Sensible,edin_semantics,sem_emo_sem_emo,1.46762763441075,2,2,2,1,528400.655341556,67,B
18,2,18/10/94,21,m,219,Mark washed the dishes,Sensible,edin_semantics,sem_emo_sem_emo,1.04386382410303,1,2,2,1,528402.443065163,57,B
18,2,18/10/94,21,m,220,Ella watched the movie,Sensible,edin_semantics,sem_emo_sem_emo,0.890395283116959,2,2,2,1,528404.077867701,33,B
18,2,18/10/94,21,m,221,Liz scrubbed the bowl,Sensible,edin_semantics,sem_emo_sem_emo,0.832111811265349,1,1,1,1,528405.653842823,56,B
18,2,18/10/94,21,m,222,Kate served the dish,Sensible,edin_semantics,sem_emo_sem_emo,1.06765335623641,2,1,1,1,528407.465068917,70,B
18,2,18/10/94,21,m,223,The turnip mashed Ella,Non-sensible,edin_semantics,sem_emo_sem_emo,1.38536893250421,2,2,2,1,528409.593827134,103,B
18,2,18/10/94,21,m,224,Jon jumped the fence,Sensible,edin_semantics,sem_emo_sem_emo,1.31442497170065,2,2,2,1,528411.652019841,17,B
18,2,18/10/94,21,m,225,The debt paid Zoe,Non-sensible,edin_semantics,sem_emo_sem_emo,1.0907677692594,1,1,1,1,528413.486789152,134,B
18,2,18/10/94,21,m,226,The portrait painted Jay,Non-sensible,edin_semantics,sem_emo_sem_emo,1.21985312225297,2,1,1,1,528415.450939843,110,B
18,2,18/10/94,21,m,227,The desk wiped Lucy,Non-sensible,edin_semantics,sem_emo_sem_emo,1.7608650890179,1,2,2,1,528417.956042204,115,B
18,2,18/10/94,21,m,228,Ben chewed the toffee,Sensible,edin_semantics,sem_emo_sem_emo,1.08968950284179,1,2,2,1,528419.790783613,31,B
18,2,18/10/94,21,m,229,The donut iced Joe,Non-sensible,edin_semantics,sem_emo_sem_emo,1.00794844597112,1,2,2,1,528421.543205703,119,B
18,2,18/10/94,21,m,230,Bill counted the sheets,Sensible,edin_semantics,sem_emo_sem_emo,0.90164363454096,2,1,1,1,528423.189803103,48,B
18,2,18/10/94,21,m,231,The door kicked Max,Non-sensible,edin_semantics,sem_emo_sem_emo,1.23124579852447,1,1,1,1,528425.165684189,114,B
18,2,18/10/94,21,m,232,Matt pushed the trolley,Sensible,edin_semantics,sem_emo_sem_emo,2.5843433928676,1,1,1,1,528428.494101287,26,B
18,2,18/10/94,21,m,233,Jack mixed the fruits,Sensible,edin_semantics,sem_emo_sem_emo,1.25538331374992,1,1,1,1,528430.493496726,8,B
18,2,18/10/94,21,m,234,John described the pen,Sensible,edin_semantics,sem_emo_sem_emo,1.84350128041115,1,1,1,1,528433.08092899,42,B
18,2,18/10/94,21,m,235,The problem solved Phil,Non-sensible,edin_semantics,sem_emo_sem_emo,3.06652826454956,1,2,2,1,528436.891591896,109,B
18,2,18/10/94,21,m,236,The radio got Ben,Non-sensible,edin_semantics,sem_emo_sem_emo,1.63172681699507,1,1,1,1,528439.267343347,88,B
18,2,18/10/94,21,m,237,The poster read Luke,Non-sensible,edin_semantics,sem_emo_sem_emo,3.24273052194621,2,2,2,1,528443.25434161,79,B
18,2,18/10/94,21,m,238,The message typed Eve,Non-sensible,edin_semantics,sem_emo_sem_emo,0.94886733929161,1,1,1,1,528444.947952962,124,B
18,2,18/10/94,21,m,239,Amy hugged the tree,Sensible,edin_semantics,sem_emo_sem_emo,1.64340108691249,2,2,2,1,528447.335495425,11,B
18,2,18/10/94,21,m,240,The crate lifted Amy,Non-sensible,edin_semantics,sem_emo_sem_emo,1.47827206703369,2,1,1,1,528449.558343126,144,B
18,2,18/10/94,21,m,241,The carrots chopped Fred,Non-sensible,edin_semantics,sem_emo_sem_emo,1.25481627776753,1,1,1,1,528451.557763903,102,B
18,2,18/10/94,21,m,242,Jen fixed the laptop,Sensible,edin_semantics,sem_emo_sem_emo,1.50200034119189,2,2,2,1,528453.804139427,37,B
18,2,18/10/94,21,m,243,The stairs climbed Ben,Non-sensible,edin_semantics,sem_emo_sem_emo,0.725931439897977,1,2,2,1,528455.274294348,143,B
18,2,18/10/94,21,m,244,The rope pulled Andy,Non-sensible,edin_semantics,sem_emo_sem_emo,0.843140468350612,2,1,1,1,528456.862031297,148,B
18,2,18/10/94,21,m,245,The shed built Rose,Non-sensible,edin_semantics,sem_emo_sem_emo,0.819988851668313,2,2,2,1,528458.426303285,121,B
18,2,18/10/94,21,m,246,Leo stored the wine,Sensible,edin_semantics,sem_emo_sem_emo,0.996306889574043,2,1,1,1,528460.166921534,52,B
18,2,18/10/94,21,m,247,The dress wore Kate,Non-sensible,edin_semantics,sem_emo_sem_emo,1.61964041972533,2,1,1,1,528462.530917251,100,B
18,2,18/10/94,21,m,248,The car lent Fred,Non-sensible,edin_semantics,sem_emo_sem_emo,1.41960276686586,2,1,1,1,528464.69497474,94,B
18,2,18/10/94,21,m,249,Liz sliced the tomato,Sensible,edin_semantics,sem_emo_sem_emo,3.64210505050141,1,2,2,1,528469.08194215,3,B
18,2,18/10/94,21,m,250,Phil passed the towels,Sensible,edin_semantics,sem_emo_sem_emo,0.961228594998829,2,2,2,1,528470.787288709,43,B
18,2,18/10/94,21,m,251,Ryan entered the room,Sensible,edin_semantics,sem_emo_sem_emo,0.972601707209833,1,1,1,1,528472.504443599,58,B
18,2,18/10/94,21,m,252,Hugh pulled the lever,Sensible,edin_semantics,sem_emo_sem_emo,1.73731962603051,1,2,2,1,528474.986016213,45,B
18,2,18/10/94,21,m,253,The beer drank Jack,Non-sensible,edin_semantics,sem_emo_sem_emo,2.14898356876802,2,2,2,1,528477.879285804,135,B
18,2,18/10/94,21,m,254,Tom knitted the scarf,Sensible,edin_semantics,sem_emo_sem_emo,0.890395924448967,2,1,1,1,528479.514076796,66,B
18,2,18/10/94,21,m,255,Beth took the photo,Sensible,edin_semantics,sem_emo_sem_emo,1.00790995929856,2,2,2,1,528481.266498886,53,B
18,2,18/10/94,21,m,256,The blanket stroked Ryan,Non-sensible,edin_semantics,sem_emo_sem_emo,0.855666254414245,1,1,1,1,528482.866073994,116,B
18,2,18/10/94,21,m,257,The pillow hugged Kate,Non-sensible,edin_semantics,sem_emo_sem_emo,0.83133887196891,1,1,1,1,528484.442022817,86,B
18,2,18/10/94,21,m,258,The internet searched Max,Non-sensible,edin_semantics,sem_emo_sem_emo,0.890217923908494,2,2,2,1,528486.076829204,85,B
18,2,18/10/94,21,m,259,The nuts mixed Liam,Non-sensible,edin_semantics,sem_emo_sem_emo,1.0077948202379,1,2,2,1,528487.829235579,83,B
18,2,18/10/94,21,m,260,Jon cut the paper,Sensible,edin_semantics,sem_emo_sem_emo,1.07892544113565,1,1,1,1,528489.652208746,20,B
18,2,18/10/94,21,m,261,Matt offered the money,Sensible,edin_semantics,sem_emo_sem_emo,1.1489887003554,2,2,2,1,528491.545783985,9,B
18,2,18/10/94,21,m,262,Mary visited the museum,Sensible,edin_semantics,sem_emo_sem_emo,0.960880291182548,2,1,1,1,528493.25115524,16,B
18,2,18/10/94,21,m,263,Max kissed the mirror,Sensible,edin_semantics,sem_emo_sem_emo,0.796182641992345,1,2,2,1,528494.791871501,23,B
18,2,18/10/94,21,m,264,The socks knitted Ryan,Non-sensible,edin_semantics,sem_emo_sem_emo,0.866953092510812,1,2,2,1,528496.403166101,141,B
18,2,18/10/94,21,m,265,The perfume sniffed Tim,Non-sensible,edin_semantics,sem_emo_sem_emo,0.961385748698376,2,2,2,1,528498.108523885,93,B
18,2,18/10/94,21,m,266,The office entered Joe,Non-sensible,edin_semantics,sem_emo_sem_emo,0.926271853968501,2,2,2,1,528499.778583359,133,B
18,2,18/10/94,21,m,267,Phil chopped the herbs,Sensible,edin_semantics,sem_emo_sem_emo,1.72570180322509,2,2,2,1,528502.248449311,27,B
18,2,18/10/94,21,m,268,Eve taught the lesson,Sensible,edin_semantics,sem_emo_sem_emo,0.843485564924777,1,2,2,1,528503.836212559,15,B
18,2,18/10/94,21,m,269,The party cancelled Phil,Non-sensible,edin_semantics,sem_emo_sem_emo,0.902549994178116,2,1,1,1,528505.482801299,82,B
18,2,18/10/94,21,m,270,Carl sold the sofa,Sensible,edin_semantics,sem_emo_sem_emo,1.07929715758655,1,1,1,1,528507.305746242,38,B
18,2,18/10/94,21,m,271,Sean read the book,Sensible,edin_semantics,sem_emo_sem_emo,1.06732622010168,1,1,1,1,528509.116922303,4,B
18,2,18/10/94,21,m,272,The monitor punched Erin,Non-sensible,edin_semantics,sem_emo_sem_emo,0.915068724192679,2,2,2,1,528510.775307829,125,B
18,2,18/10/94,21,m,273,Lara filed the papers,Sensible,edin_semantics,sem_emo_sem_emo,0.973575418349355,2,1,1,1,528512.492473624,24,B
18,2,18/10/94,21,m,274,Beth wiped the table,Sensible,edin_semantics,sem_emo_sem_emo,0.925988977425732,1,1,1,1,528514.162532457,40,B
18,2,18/10/94,21,m,275,Luke swallowed the pill,Sensible,edin_semantics,sem_emo_sem_emo,1.06779447384179,1,1,1,1,528515.973748287,22,B
18,2,18/10/94,21,m,276,Ewan wrote the story,Sensible,edin_semantics,sem_emo_sem_emo,1.34994008927606,2,1,1,1,528518.067249247,74,B
18,2,18/10/94,21,m,277,The button pushed Ian,Non-sensible,edin_semantics,sem_emo_sem_emo,1.87924539321102,2,2,2,1,528520.689971481,101,B
18,2,18/10/94,21,m,278,The rice stored Fred,Non-sensible,edin_semantics,sem_emo_sem_emo,0.855510063003749,2,2,2,1,528522.289514838,127,B
18,2,18/10/94,21,m,279,Phil sniffed the milk,Sensible,edin_semantics,sem_emo_sem_emo,1.09055801725481,1,1,1,1,528524.124242455,18,B
18,2,18/10/94,21,m,280,The salt passed Leo,Non-sensible,edin_semantics,sem_emo_sem_emo,0.820308931986801,2,1,1,1,528525.688492313,118,B
18,2,18/10/94,21,m,281,Ryan carried the gun,Sensible,edin_semantics,sem_emo_sem_emo,1.17325739073567,1,2,2,1,528527.605565869,75,B
18,2,18/10/94,21,m,282,The rose kissed Hugh,Non-sensible,edin_semantics,sem_emo_sem_emo,0.843628606875427,2,1,1,1,528529.193316288,98,B
18,2,18/10/94,21,m,283,Matt drank the juice,Sensible,edin_semantics,sem_emo_sem_emo,1.45586933533195,1,1,1,1,528531.392692292,60,B
18,2,18/10/94,21,m,284,Jeff watered the garden,Sensible,edin_semantics,sem_emo_sem_emo,0.86779274197761,1,1,1,1,528533.003932048,54,B
18,2,18/10/94,21,m,285,Jake dusted the shelf,Sensible,edin_semantics,sem_emo_sem_emo,1.52644093846902,2,2,2,1,528535.273835075,47,B
18,2,18/10/94,21,m,286,The candy sucked Sam,Non-sensible,edin_semantics,sem_emo_sem_emo,1.3615951158572,2,2,2,1,528537.379096258,87,B
18,2,18/10/94,21,m,287,The wallet carried Leo,Non-sensible,edin_semantics,sem_emo_sem_emo,0.808741783141159,1,1,1,1,528538.931570177,150,B
18,2,18/10/94,21,m,288,Kate built the house,Sensible,edin_semantics,sem_emo_sem_emo,0.950161772081628,1,1,1,1,528540.625179283,46,B
18,2,18/10/94,21,m,289,The carrots grated Tom,Non-sensible,edin_semantics,sem_emo_sem_emo,1.20886487606913,2,1,1,1,528542.577536075,140,B
18,2,18/10/94,21,m,290,The ice crushed Josh,Non-sensible,edin_semantics,sem_emo_sem_emo,1.45532474992797,2,2,2,1,528544.776909192,81,B
18,2,18/10/94,21,m,291,Joe solved the puzzle,Sensible,edin_semantics,sem_emo_sem_emo,1.0444533105474,1,1,1,1,528546.564575069,34,B
18,2,18/10/94,21,m,292,The sweets offered Tom,Non-sensible,edin_semantics,sem_emo_sem_emo,1.56122577260248,2,1,1,1,528548.869773198,84,B
18,2,18/10/94,21,m,293,The ticket took Tim,Non-sensible,edin_semantics,sem_emo_sem_emo,0.938575379899703,2,1,1,1,528550.551619516,128,B
18,2,18/10/94,21,m,294,The report filed Ian,Non-sensible,edin_semantics,sem_emo_sem_emo,0.820238373242319,2,2,2,1,528552.115883806,99,B
18,2,18/10/94,21,m,295,The hedge jumped Sara,Non-sensible,edin_semantics,sem_emo_sem_emo,0.90275589749217,2,1,1,1,528553.762448492,92,B
18,2,18/10/94,21,m,296,The pan washed Beth,Non-sensible,edin_semantics,sem_emo_sem_emo,0.843988456530496,1,1,1,1,528555.350191856,132,B
18,2,18/10/94,21,m,297,Jen searched the room,Sensible,edin_semantics,sem_emo_sem_emo,0.773573365760967,1,1,1,1,528556.867371955,10,B
18,2,18/10/94,21,m,298,The ribbon cut Lucy,Non-sensible,edin_semantics,sem_emo_sem_emo,0.773987417458557,2,2,2,1,528558.38455911,95,B
18,2,18/10/94,21,m,299,The hair brushed Dan,Non-sensible,edin_semantics,sem_emo_sem_emo,0.914985015871935,1,2,2,1,528560.042941749,147,B
18,2,18/10/94,21,m,300,Rob stroked the fur,Sensible,edin_semantics,sem_emo_sem_emo,0.949807695345953,1,2,2,1,528561.736515898,41,B
