subject_column,AssignedList_column,subject_dob_column,subject_age_column,subject_gender_column,trialnum_column,Stim_column,Type_column,Experiment_column,OrderGroup_column,ReactionTime_column,StimSide_column,StimPosition_column,Response_column,Valid_column,TrialEndSecs_column,PairID_column,List_column
19,3,4/3/91,25,f,1,Ian cancelled the plans,Sensible,edin_semantics,emo_sem_emo_sem,1.41400681470986,1,2,2,1,532616.840085915,7,B
19,3,4/3/91,25,f,2,Matt kicked the bike,Sensible,edin_semantics,emo_sem_emo_sem,3.22050001798198,2,2,2,1,532620.803578805,39,B
19,3,4/3/91,25,f,3,Ryan painted the picture,Sensible,edin_semantics,emo_sem_emo_sem,1.46815073140897,1,2,2,1,532623.014685847,35,B
19,3,4/3/91,25,f,4,Matt drank the juice,Sensible,edin_semantics,emo_sem_emo_sem,2.80931779928505,2,1,1,1,532626.566592409,60,B
19,3,4/3/91,25,f,5,The candy sucked Sam,Non-sensible,edin_semantics,emo_sem_emo_sem,1.30346911831293,2,2,2,1,532628.61296556,87,B
19,3,4/3/91,25,f,6,Carl brushed the teeth,Sensible,edin_semantics,emo_sem_emo_sem,1.24450828228146,2,1,1,1,532630.600667165,72,B
19,3,4/3/91,25,f,7,Liz scrubbed the bowl,Sensible,edin_semantics,emo_sem_emo_sem,1.60950946260709,1,1,1,1,532632.952881171,56,B
19,3,4/3/91,25,f,8,Tom knitted the scarf,Sensible,edin_semantics,emo_sem_emo_sem,1.22172485408373,2,1,1,1,532634.917002355,66,B
19,3,4/3/91,25,f,9,The ribbon cut Lucy,Non-sensible,edin_semantics,emo_sem_emo_sem,0.879692158428952,1,2,2,1,532636.540039859,95,B
19,3,4/3/91,25,f,10,Tim pulled the handle,Sensible,edin_semantics,emo_sem_emo_sem,1.36269198404625,1,2,2,1,532638.645289176,73,B
19,3,4/3/91,25,f,11,Tim cleaned the floor,Sensible,edin_semantics,emo_sem_emo_sem,1.0214123429032,1,2,2,1,532640.40946764,5,B
19,3,4/3/91,25,f,12,The hair trimmed Bill,Non-sensible,edin_semantics,emo_sem_emo_sem,1.31543139636051,1,2,2,1,532642.467692741,107,B
19,3,4/3/91,25,f,13,The fat chewed Adam,Non-sensible,edin_semantics,emo_sem_emo_sem,1.30418913858011,1,1,1,1,532644.514607911,106,B
19,3,4/3/91,25,f,14,The message typed Eve,Non-sensible,edin_semantics,emo_sem_emo_sem,1.72654882923234,2,1,1,1,532646.983972574,124,B
19,3,4/3/91,25,f,15,Jane punched the wall,Sensible,edin_semantics,emo_sem_emo_sem,1.11593031103257,1,1,1,1,532648.842253352,50,B
19,3,4/3/91,25,f,16,The rope pulled Emma,Non-sensible,edin_semantics,emo_sem_emo_sem,0.939333245274611,1,1,1,1,532650.524080106,120,B
19,3,4/3/91,25,f,17,Jon cut the paper,Sensible,edin_semantics,emo_sem_emo_sem,1.17455374775454,1,1,1,1,532652.441170018,20,B
19,3,4/3/91,25,f,18,The bowl dented Ian,Non-sensible,edin_semantics,emo_sem_emo_sem,1.09185501583852,1,1,1,1,532654.275859791,146,B
19,3,4/3/91,25,f,19,The bath cleaned Jack,Non-sensible,edin_semantics,emo_sem_emo_sem,1.80950189358555,2,1,1,1,532656.828076491,80,B
19,3,4/3/91,25,f,20,The pan washed Beth,Non-sensible,edin_semantics,emo_sem_emo_sem,0.868881912901998,1,1,1,1,532658.439410539,132,B
19,3,4/3/91,25,f,21,Kate served the dish,Sensible,edin_semantics,emo_sem_emo_sem,1.35059211635962,2,1,1,1,532660.532850241,70,B
19,3,4/3/91,25,f,22,The gift posted Jack,Non-sensible,edin_semantics,emo_sem_emo_sem,4.43228859314695,2,2,2,1,532665.707769932,111,B
19,3,4/3/91,25,f,23,The internet searched Max,Non-sensible,edin_semantics,emo_sem_emo_sem,1.00976661720779,1,2,2,1,532667.460216718,85,B
19,3,4/3/91,25,f,24,Sean read the book,Sensible,edin_semantics,emo_sem_emo_sem,1.23278205550741,1,1,1,1,532669.436078241,4,B
19,3,4/3/91,25,f,25,Rob stroked the fur,Sensible,edin_semantics,emo_sem_emo_sem,1.4326189365238,2,2,2,1,532671.611918083,41,B
19,3,4/3/91,25,f,26,Luke swallowed the pill,Sensible,edin_semantics,emo_sem_emo_sem,1.50364083284512,2,1,1,1,532673.858337546,22,B
19,3,4/3/91,25,f,27,The plate licked Jane,Non-sensible,edin_semantics,emo_sem_emo_sem,1.93858660513069,2,1,1,1,532676.539819203,96,B
19,3,4/3/91,25,f,28,The salt passed Leo,Non-sensible,edin_semantics,emo_sem_emo_sem,2.38536700827535,2,1,1,1,532679.668305448,118,B
19,3,4/3/91,25,f,29,Ewan wrote the story,Sensible,edin_semantics,emo_sem_emo_sem,3.4203587078955,2,1,1,1,532683.831794297,74,B
19,3,4/3/91,25,f,30,Hugh pulled the lever,Sensible,edin_semantics,emo_sem_emo_sem,4.58500087237917,2,2,2,1,532689.159634736,45,B
19,3,4/3/91,25,f,31,Jen searched the room,Sensible,edin_semantics,emo_sem_emo_sem,2.15058172505815,2,1,1,1,532692.052821581,10,B
19,3,4/3/91,25,f,32,Amy measured the thread,Sensible,edin_semantics,emo_sem_emo_sem,1.9154093307443,1,2,2,1,532694.710852709,51,B
19,3,4/3/91,25,f,33,Andy grated the cheese,Sensible,edin_semantics,emo_sem_emo_sem,2.10312293132301,2,2,2,1,532697.557073389,65,B
19,3,4/3/91,25,f,34,Kate built the house,Sensible,edin_semantics,emo_sem_emo_sem,2.58566476625856,2,1,1,1,532700.885468677,46,B
19,3,4/3/91,25,f,35,Amy hugged the tree,Sensible,edin_semantics,emo_sem_emo_sem,1.46772930317093,1,2,2,1,532703.096567701,11,B
19,3,4/3/91,25,f,36,The carrots grated Tom,Non-sensible,edin_semantics,emo_sem_emo_sem,1.18644963647239,1,1,1,1,532705.025405649,140,B
19,3,4/3/91,25,f,37,The trousers ironed Eve,Non-sensible,edin_semantics,emo_sem_emo_sem,1.25654496764764,2,1,1,1,532707.024828029,130,B
19,3,4/3/91,25,f,38,The bed sold Jay,Non-sensible,edin_semantics,emo_sem_emo_sem,1.02162145345937,1,2,2,1,532708.788974422,113,B
19,3,4/3/91,25,f,39,Erin posted the card,Sensible,edin_semantics,emo_sem_emo_sem,1.26782924006693,2,1,1,1,532710.800149649,36,B
19,3,4/3/91,25,f,40,The turnip mashed Ella,Non-sensible,edin_semantics,emo_sem_emo_sem,1.40928065963089,2,2,2,1,532712.952441783,103,B
19,3,4/3/91,25,f,41,The church described Erin,Non-sensible,edin_semantics,emo_sem_emo_sem,1.00931760680396,1,2,2,1,532714.70489819,117,B
19,3,4/3/91,25,f,42,The sugar weighed Liz,Non-sensible,edin_semantics,emo_sem_emo_sem,1.0565611962229,2,2,2,1,532716.504305047,139,B
19,3,4/3/91,25,f,43,The trophy polished Anna,Non-sensible,edin_semantics,emo_sem_emo_sem,0.904043274349533,1,1,1,1,532718.150903088,104,B
19,3,4/3/91,25,f,44,Will licked the spoon,Sensible,edin_semantics,emo_sem_emo_sem,1.4448859001277,2,2,2,1,532720.338484552,21,B
19,3,4/3/91,25,f,45,The donut iced Joe,Non-sensible,edin_semantics,emo_sem_emo_sem,1.10386219481006,1,2,2,1,532722.184967261,119,B
19,3,4/3/91,25,f,46,The socks knitted Ryan,Non-sensible,edin_semantics,emo_sem_emo_sem,0.880397746223025,2,2,2,1,532723.808041968,141,B
19,3,4/3/91,25,f,47,The hotline dialed Hugh,Non-sensible,edin_semantics,emo_sem_emo_sem,2.39753679325804,2,1,1,1,532726.948268552,138,B
19,3,4/3/91,25,f,48,The nuts mixed Liam,Non-sensible,edin_semantics,emo_sem_emo_sem,1.65681815845892,2,2,2,1,532729.347573804,83,B
19,3,4/3/91,25,f,49,The rice stored Fred,Non-sensible,edin_semantics,emo_sem_emo_sem,1.1504983373452,1,2,2,1,532731.241079126,127,B
19,3,4/3/91,25,f,50,Jon jumped the fence,Sensible,edin_semantics,emo_sem_emo_sem,1.09211191395298,2,2,2,1,532733.0758231,17,B
19,3,4/3/91,25,f,51,Sam tidied the room,Sensible,edin_semantics,emo_sem_emo_sem,1.88031660357956,2,1,1,1,532735.698616856,2,B
19,3,4/3/91,25,f,52,Will mashed the potatoes,Sensible,edin_semantics,emo_sem_emo_sem,0.974144699401222,2,1,1,1,532737.415705357,28,B
19,3,4/3/91,25,f,53,The ticket took Tim,Non-sensible,edin_semantics,emo_sem_emo_sem,2.15026581415441,2,1,1,1,532740.308957308,128,B
19,3,4/3/91,25,f,54,Matt pushed the trolley,Sensible,edin_semantics,emo_sem_emo_sem,1.03288904833607,2,1,1,1,532742.08491556,26,B
19,3,4/3/91,25,f,55,Jon trimmed the bushes,Sensible,edin_semantics,emo_sem_emo_sem,1.37400415912271,1,1,1,1,532744.201918685,32,B
19,3,4/3/91,25,f,56,The radio fixed Luke,Non-sensible,edin_semantics,emo_sem_emo_sem,0.915853209560737,1,1,1,1,532745.860248726,112,B
19,3,4/3/91,25,f,57,The box labeled Ian,Non-sensible,edin_semantics,emo_sem_emo_sem,1.8211376768304,2,1,1,1,532748.424162788,136,B
19,3,4/3/91,25,f,58,Jen fixed the laptop,Sensible,edin_semantics,emo_sem_emo_sem,2.31477872759569,1,2,2,1,532751.482075506,37,B
19,3,4/3/91,25,f,59,The door kicked Max,Non-sensible,edin_semantics,emo_sem_emo_sem,1.77399543544743,2,1,1,1,532753.998986519,114,B
19,3,4/3/91,25,f,60,Bill counted the sheets,Sensible,edin_semantics,emo_sem_emo_sem,1.90363820281345,2,1,1,1,532756.645254538,48,B
19,3,4/3/91,25,f,61,The blanket stroked Ryan,Non-sensible,edin_semantics,emo_sem_emo_sem,0.903970791259781,1,1,1,1,532758.291832052,116,B
19,3,4/3/91,25,f,62,Phil chopped the herbs,Sensible,edin_semantics,emo_sem_emo_sem,2.45639339473564,2,2,2,1,532761.490844999,27,B
19,3,4/3/91,25,f,63,Beth wiped the table,Sensible,edin_semantics,emo_sem_emo_sem,1.25647665397264,2,1,1,1,532763.490256475,40,B
19,3,4/3/91,25,f,64,The pillow hugged Kate,Non-sensible,edin_semantics,emo_sem_emo_sem,1.2569663960021,2,1,1,1,532765.489644538,86,B
19,3,4/3/91,25,f,65,The poster read Luke,Non-sensible,edin_semantics,emo_sem_emo_sem,2.53867101902142,1,2,2,1,532768.771039664,79,B
19,3,4/3/91,25,f,66,Max kissed the mirror,Sensible,edin_semantics,emo_sem_emo_sem,1.5979124866426,2,2,2,1,532771.111526481,23,B
19,3,4/3/91,25,f,67,Joe wore the jumper,Sensible,edin_semantics,emo_sem_emo_sem,2.11540400667582,1,2,2,1,532773.969480764,25,B
19,3,4/3/91,25,f,68,The dress wore Kate,Non-sensible,edin_semantics,emo_sem_emo_sem,2.67994347598869,1,1,1,1,532777.39198029,100,B
19,3,4/3/91,25,f,69,The cream whisked Tom,Non-sensible,edin_semantics,emo_sem_emo_sem,1.63207383779809,1,2,2,1,532779.767725647,137,B
19,3,4/3/91,25,f,70,Jack mixed the fruits,Sensible,edin_semantics,emo_sem_emo_sem,1.89179747831076,2,1,1,1,532782.40222831,8,B
19,3,4/3/91,25,f,71,The pot scrubbed Josh,Non-sensible,edin_semantics,emo_sem_emo_sem,2.13863355887588,1,2,2,1,532785.283732867,131,B
19,3,4/3/91,25,f,72,Josh ironed the shirt,Sensible,edin_semantics,emo_sem_emo_sem,0.91515275335405,1,2,2,1,532786.942042382,55,B
19,3,4/3/91,25,f,73,Dan carried the folder,Sensible,edin_semantics,emo_sem_emo_sem,4.78456289484166,2,1,1,1,532792.469831634,30,B
19,3,4/3/91,25,f,74,The hospital visited Tom,Non-sensible,edin_semantics,emo_sem_emo_sem,1.09185565728694,1,2,2,1,532794.304569835,91,B
19,3,4/3/91,25,f,75,Leo stored the wine,Sensible,edin_semantics,emo_sem_emo_sem,1.11541972204577,1,1,1,1,532796.162811164,52,B
19,3,4/3/91,25,f,76,The carrots chopped Fred,Non-sensible,edin_semantics,emo_sem_emo_sem,0.691802481655031,1,1,1,1,532797.597712677,102,B
19,3,4/3/91,25,f,77,The shed built Rose,Non-sensible,edin_semantics,emo_sem_emo_sem,2.31484287208878,1,2,2,1,532800.655607434,121,B
19,3,4/3/91,25,f,78,The problem solved Phil,Non-sensible,edin_semantics,emo_sem_emo_sem,1.03286820137873,1,2,2,1,532802.431524634,109,B
19,3,4/3/91,25,f,79,The kettle carried John,Non-sensible,edin_semantics,emo_sem_emo_sem,1.65596279373858,2,2,2,1,532804.830860355,105,B
19,3,4/3/91,25,f,80,Tim ate the ham,Sensible,edin_semantics,emo_sem_emo_sem,1.86752365634311,2,2,2,1,532807.441806972,67,B
19,3,4/3/91,25,f,81,Jen weighed the flour,Sensible,edin_semantics,emo_sem_emo_sem,1.60909509006888,2,1,1,1,532809.794042145,64,B
19,3,4/3/91,25,f,82,The invite mailed Ian,Non-sensible,edin_semantics,emo_sem_emo_sem,1.32696551084518,1,2,2,1,532811.864027469,89,B
19,3,4/3/91,25,f,83,The perfume sniffed Tim,Non-sensible,edin_semantics,emo_sem_emo_sem,2.00887725595385,2,2,2,1,532814.616113443,93,B
19,3,4/3/91,25,f,84,The beer drank Jack,Non-sensible,edin_semantics,emo_sem_emo_sem,2.64419583522249,2,2,2,1,532818.003324922,135,B
19,3,4/3/91,25,f,85,Phil sniffed the milk,Sensible,edin_semantics,emo_sem_emo_sem,2.36225291597657,2,1,1,1,532821.108301625,18,B
19,3,4/3/91,25,f,86,Josh squeezed the ball,Sensible,edin_semantics,emo_sem_emo_sem,2.11535525706131,2,2,2,1,532823.966266171,1,B
19,3,4/3/91,25,f,87,Dan whisked the eggs,Sensible,edin_semantics,emo_sem_emo_sem,3.16189774882514,1,1,1,1,532827.870973981,62,B
19,3,4/3/91,25,f,88,The stairs climbed Ben,Non-sensible,edin_semantics,emo_sem_emo_sem,1.19771177892108,1,2,2,1,532829.811720646,143,B
19,3,4/3/91,25,f,89,Leah sucked the lolly,Sensible,edin_semantics,emo_sem_emo_sem,1.70369452156592,2,1,1,1,532832.257881415,12,B
19,3,4/3/91,25,f,90,The hair brushed Dan,Non-sensible,edin_semantics,emo_sem_emo_sem,1.32689398992807,2,2,2,1,532834.327851344,147,B
19,3,4/3/91,25,f,91,Mike paid the bill,Sensible,edin_semantics,emo_sem_emo_sem,0.974385561421514,1,2,2,1,532836.045059475,59,B
19,3,4/3/91,25,f,92,Tom dialed the number,Sensible,edin_semantics,emo_sem_emo_sem,2.92666826606728,1,2,2,1,532839.714476544,63,B
19,3,4/3/91,25,f,93,The crate lifted Amy,Non-sensible,edin_semantics,emo_sem_emo_sem,1.02095435233787,1,1,1,1,532841.478636086,144,B
19,3,4/3/91,25,f,94,The plants watered Luke,Non-sensible,edin_semantics,emo_sem_emo_sem,0.903820051928051,1,2,2,1,532843.125216166,129,B
19,3,4/3/91,25,f,95,The portrait painted Jay,Non-sensible,edin_semantics,emo_sem_emo_sem,0.986077470937744,1,1,1,1,532844.854130639,110,B
19,3,4/3/91,25,f,96,Eve taught the lesson,Sensible,edin_semantics,emo_sem_emo_sem,1.3857005587779,2,2,2,1,532846.982883083,15,B
19,3,4/3/91,25,f,97,The report wrote Alex,Non-sensible,edin_semantics,emo_sem_emo_sem,2.02091650711372,1,2,2,1,532849.746757504,149,B
19,3,4/3/91,25,f,98,Jeff watered the garden,Sensible,edin_semantics,emo_sem_emo_sem,1.29190998745617,2,1,1,1,532851.781445159,54,B
19,3,4/3/91,25,f,99,The wallet carried Leo,Non-sensible,edin_semantics,emo_sem_emo_sem,1.25613668898586,1,1,1,1,532853.780882293,150,B
19,3,4/3/91,25,f,100,Phil passed the towels,Sensible,edin_semantics,emo_sem_emo_sem,0.985949823749252,1,2,2,1,532855.509759241,43,B
19,3,4/3/91,25,f,101,The office entered Joe,Non-sensible,edin_semantics,emo_sem_emo_sem,1.89168682938907,2,2,2,1,532858.144248434,133,B
19,3,4/3/91,25,f,102,Lara filed the papers,Sensible,edin_semantics,emo_sem_emo_sem,1.59775276714936,2,1,1,1,532860.484722422,24,B
19,3,4/3/91,25,f,103,The radio got Ben,Non-sensible,edin_semantics,emo_sem_emo_sem,1.09192140516825,1,1,1,1,532862.319456133,88,B
19,3,4/3/91,25,f,104,The debt paid Zoe,Non-sensible,edin_semantics,emo_sem_emo_sem,1.17433052556589,1,1,1,1,532864.236532575,134,B
19,3,4/3/91,25,f,105,Ben chewed the toffee,Sensible,edin_semantics,emo_sem_emo_sem,1.43287326872814,2,2,2,1,532866.412367606,31,B
19,3,4/3/91,25,f,106,Mary visited the museum,Sensible,edin_semantics,emo_sem_emo_sem,1.11467885493767,1,1,1,1,532868.270635876,16,B
19,3,4/3/91,25,f,107,The party cancelled Phil,Non-sensible,edin_semantics,emo_sem_emo_sem,1.32682054454926,1,1,1,1,532870.340627293,82,B
19,3,4/3/91,25,f,108,Mark washed the dishes,Sensible,edin_semantics,emo_sem_emo_sem,1.83245947351679,2,2,2,1,532872.916335254,57,B
19,3,4/3/91,25,f,109,The opera watched Adam,Non-sensible,edin_semantics,emo_sem_emo_sem,0.938523422926664,1,1,1,1,532874.598174516,108,B
19,3,4/3/91,25,f,110,The steak ate Mike,Non-sensible,edin_semantics,emo_sem_emo_sem,1.32687314308714,2,1,1,1,532876.66811526,142,B
19,3,4/3/91,25,f,111,The rope pulled Andy,Non-sensible,edin_semantics,emo_sem_emo_sem,0.926929333480075,1,1,1,1,532878.338184356,148,B
19,3,4/3/91,25,f,112,The garage tidied Erin,Non-sensible,edin_semantics,emo_sem_emo_sem,1.29150684038177,1,2,2,1,532880.372919478,77,B
19,3,4/3/91,25,f,113,Joe solved the puzzle,Sensible,edin_semantics,emo_sem_emo_sem,1.17390075838193,2,1,1,1,532882.289967697,34,B
19,3,4/3/91,25,f,114,Ella watched the movie,Sensible,edin_semantics,emo_sem_emo_sem,0.692498447722755,1,2,2,1,532883.725352217,33,B
19,3,4/3/91,25,f,115,Jon polished the coins,Sensible,edin_semantics,emo_sem_emo_sem,1.33804869069718,2,2,2,1,532885.806564403,29,B
19,3,4/3/91,25,f,116,Luke climbed the hill,Sensible,edin_semantics,emo_sem_emo_sem,2.18541146023199,2,1,1,1,532888.735079385,68,B
19,3,4/3/91,25,f,117,The ice crushed Josh,Non-sensible,edin_semantics,emo_sem_emo_sem,1.52658494247589,1,2,2,1,532891.004982732,81,B
19,3,4/3/91,25,f,118,The desk wiped Lucy,Non-sensible,edin_semantics,emo_sem_emo_sem,0.844960884773172,1,2,2,1,532892.592743736,115,B
19,3,4/3/91,25,f,119,John described the pen,Sensible,edin_semantics,emo_sem_emo_sem,1.17382859601639,1,1,1,1,532894.509823064,42,B
19,3,4/3/91,25,f,120,The house dusted Alex,Non-sensible,edin_semantics,emo_sem_emo_sem,1.32616049947683,1,1,1,1,532896.579785617,122,B
19,3,4/3/91,25,f,121,Kate lifted the box,Sensible,edin_semantics,emo_sem_emo_sem,1.7970068968134,1,2,2,1,532899.120232793,69,B
19,3,4/3/91,25,f,122,Ryan carried the gun,Sensible,edin_semantics,emo_sem_emo_sem,10.8058052553097,2,2,2,1,532910.66971983,75,B
19,3,4/3/91,25,f,123,The car lent Fred,Non-sensible,edin_semantics,emo_sem_emo_sem,1.70172529038973,2,1,1,1,532913.11600985,94,B
19,3,4/3/91,25,f,124,Lily got the kettle,Sensible,edin_semantics,emo_sem_emo_sem,1.32630578626413,1,2,2,1,532915.185979458,13,B
19,3,4/3/91,25,f,125,The shoes counted Lucy,Non-sensible,edin_semantics,emo_sem_emo_sem,0.961960481945425,1,2,2,1,532916.891369315,123,B
19,3,4/3/91,25,f,126,The gum swallowed Owen,Non-sensible,edin_semantics,emo_sem_emo_sem,1.96184758783784,2,2,2,1,532919.596444864,97,B
19,3,4/3/91,25,f,127,Matt offered the money,Sensible,edin_semantics,emo_sem_emo_sem,2.26767336926423,2,2,2,1,532922.607282371,9,B
19,3,4/3/91,25,f,128,Ryan entered the room,Sensible,edin_semantics,emo_sem_emo_sem,1.46781589800958,1,1,1,1,532924.818404166,58,B
19,3,4/3/91,25,f,129,Max lent the bucket,Sensible,edin_semantics,emo_sem_emo_sem,1.08005823031999,1,2,2,1,532926.641379257,19,B
19,3,4/3/91,25,f,130,Liz labeled the jar,Sensible,edin_semantics,emo_sem_emo_sem,1.22098206274677,1,2,2,1,532928.605554323,61,B
19,3,4/3/91,25,f,131,The monitor punched Erin,Non-sensible,edin_semantics,emo_sem_emo_sem,1.32516818644945,2,2,2,1,532930.675490576,125,B
19,3,4/3/91,25,f,132,Rob mailed the parcel,Sensible,edin_semantics,emo_sem_emo_sem,0.984019720577635,1,1,1,1,532932.404343149,14,B
19,3,4/3/91,25,f,133,Erin crushed the garlic,Sensible,edin_semantics,emo_sem_emo_sem,0.9147287592059,2,1,1,1,532934.062679925,6,B
19,3,4/3/91,25,f,134,The rose kissed Hugh,Non-sensible,edin_semantics,emo_sem_emo_sem,1.59747341857292,2,1,1,1,532936.403158082,98,B
19,3,4/3/91,25,f,135,The sweets offered Tom,Non-sensible,edin_semantics,emo_sem_emo_sem,0.997156802099198,1,1,1,1,532938.143805517,84,B
19,3,4/3/91,25,f,136,The dessert served Fred,Non-sensible,edin_semantics,emo_sem_emo_sem,0.821216895012185,1,2,2,1,532939.708045753,145,B
19,3,4/3/91,25,f,137,The curtains measured Rob,Non-sensible,edin_semantics,emo_sem_emo_sem,0.844537211465649,1,1,1,1,532941.295807718,126,B
19,3,4/3/91,25,f,138,The report filed Ian,Non-sensible,edin_semantics,emo_sem_emo_sem,1.24486043478828,1,2,2,1,532943.283461216,99,B
19,3,4/3/91,25,f,139,Beth took the photo,Sensible,edin_semantics,emo_sem_emo_sem,1.80897719284985,2,2,2,1,532945.835643278,53,B
19,3,4/3/91,25,f,140,The lemon squeezed Jay,Non-sensible,edin_semantics,emo_sem_emo_sem,0.833013680763543,1,1,1,1,532947.411611024,76,B
19,3,4/3/91,25,f,141,Lily dented the lorry,Sensible,edin_semantics,emo_sem_emo_sem,2.50288457097486,2,2,2,1,532950.657703992,71,B
19,3,4/3/91,25,f,142,Jake dusted the shelf,Sensible,edin_semantics,emo_sem_emo_sem,1.36159575718921,1,2,2,1,532952.762946894,47,B
19,3,4/3/91,25,f,143,Liz sliced the tomato,Sensible,edin_semantics,emo_sem_emo_sem,1.00990997988265,1,2,2,1,532954.515884063,3,B
19,3,4/3/91,25,f,144,Mary iced the cake,Sensible,edin_semantics,emo_sem_emo_sem,0.938109691953287,1,1,1,1,532956.197218188,44,B
19,3,4/3/91,25,f,145,Phil typed the letter,Sensible,edin_semantics,emo_sem_emo_sem,1.75033804064151,2,2,2,1,532958.690593361,49,B
19,3,4/3/91,25,f,146,The onion sliced Liam,Non-sensible,edin_semantics,emo_sem_emo_sem,0.949980243458413,1,1,1,1,532960.384199261,78,B
19,3,4/3/91,25,f,147,The rules taught Josh,Non-sensible,edin_semantics,emo_sem_emo_sem,1.29123358544894,2,1,1,1,532962.418916743,90,B
19,3,4/3/91,25,f,148,Carl sold the sofa,Sensible,edin_semantics,emo_sem_emo_sem,1.18571454228368,1,1,1,1,532964.347716846,38,B
19,3,4/3/91,25,f,149,The hedge jumped Sara,Non-sensible,edin_semantics,emo_sem_emo_sem,0.93871681811288,1,1,1,1,532966.029569899,92,B
19,3,4/3/91,25,f,150,The button pushed Ian,Non-sensible,edin_semantics,emo_sem_emo_sem,1.39742421987467,1,2,2,1,532968.170107583,101,B
19,3,4/3/91,25,f,24,Amy lifted the crate,Sensible,edin_semantics,emo_sem_emo_sem,1.14427665702533,1,1,1,1,532972.521779248,144,A
19,3,4/3/91,25,f,25,The eggs whisked Dan,Non-sensible,edin_semantics,emo_sem_emo_sem,1.80815101368353,2,1,1,1,532975.073927956,62,A
19,3,4/3/91,25,f,26,Ian pushed the button,Sensible,edin_semantics,emo_sem_emo_sem,1.17398799478542,1,2,2,1,532976.990979381,101,A
19,3,4/3/91,25,f,27,The bucket lent Max,Non-sensible,edin_semantics,emo_sem_emo_sem,1.12669918360189,1,2,2,1,532978.861011723,19,A
19,3,4/3/91,25,f,28,Andy pulled the rope,Sensible,edin_semantics,emo_sem_emo_sem,1.12647115043364,1,1,1,1,532980.731073892,148,A
19,3,4/3/91,25,f,29,The bushes trimmed Jon,Non-sensible,edin_semantics,emo_sem_emo_sem,1.50307540036738,2,1,1,1,532982.977471546,32,A
19,3,4/3/91,25,f,30,Joe iced the donut,Sensible,edin_semantics,emo_sem_emo_sem,3.06726816948503,2,2,2,1,532986.788054592,119,A
19,3,4/3/91,25,f,31,Fred stored the rice,Sensible,edin_semantics,emo_sem_emo_sem,0.950455553131178,1,2,2,1,532988.481667227,127,A
19,3,4/3/91,25,f,32,The potatoes mashed Will,Non-sensible,edin_semantics,emo_sem_emo_sem,0.6916347440565,1,1,1,1,532989.916555269,28,A
19,3,4/3/91,25,f,33,Rob measured the curtains,Sensible,edin_semantics,emo_sem_emo_sem,1.65591372328345,2,1,1,1,532992.315785152,126,A
19,3,4/3/91,25,f,34,The pill swallowed Luke,Non-sensible,edin_semantics,emo_sem_emo_sem,1.17413167806808,2,1,1,1,532994.232906816,22,A
19,3,4/3/91,25,f,35,Alex dusted the house,Sensible,edin_semantics,emo_sem_emo_sem,1.06801801675465,1,1,1,1,532996.044128099,122,A
19,3,4/3/91,25,f,36,The scarf knitted Tom,Non-sensible,edin_semantics,emo_sem_emo_sem,0.891728202463128,1,1,1,1,532997.678970406,66,A
19,3,4/3/91,25,f,37,Leo passed the salt,Sensible,edin_semantics,emo_sem_emo_sem,0.820495271240361,1,1,1,1,532999.243199417,118,A
19,3,4/3/91,25,f,38,Hugh dialed the hotline,Sensible,edin_semantics,emo_sem_emo_sem,1.18523153534625,2,1,1,1,533001.17197258,138,A
19,3,4/3/91,25,f,39,Beth washed the pan,Sensible,edin_semantics,emo_sem_emo_sem,1.267683632439,2,1,1,1,533003.183169936,132,A
19,3,4/3/91,25,f,40,Phil solved the problem,Sensible,edin_semantics,emo_sem_emo_sem,1.09171806764789,1,2,2,1,533005.017897554,109,A
19,3,4/3/91,25,f,41,The folder carried Dan,Non-sensible,edin_semantics,emo_sem_emo_sem,1.06814149476122,1,1,1,1,533006.829111139,30,A
19,3,4/3/91,25,f,42,Anna polished the trophy,Sensible,edin_semantics,emo_sem_emo_sem,1.22082106035668,2,1,1,1,533008.793253491,104,A
19,3,4/3/91,25,f,43,The lesson taught Eve,Non-sensible,edin_semantics,emo_sem_emo_sem,1.46809909527656,2,2,2,1,533011.00433744,15,A
19,3,4/3/91,25,f,44,Liam sliced the onion,Sensible,edin_semantics,emo_sem_emo_sem,0.750482686213218,1,1,1,1,533012.498024034,78,A
19,3,4/3/91,25,f,45,The lorry dented Lily,Non-sensible,edin_semantics,emo_sem_emo_sem,0.856208274024539,1,2,2,1,533014.097543015,71,A
19,3,4/3/91,25,f,46,Luke watered the plants,Sensible,edin_semantics,emo_sem_emo_sem,1.2325264402898,2,2,2,1,533016.073402614,129,A
19,3,4/3/91,25,f,47,Jane licked the plate,Sensible,edin_semantics,emo_sem_emo_sem,2.03217640460934,2,1,1,1,533018.849052011,96,A
19,3,4/3/91,25,f,48,Emma pulled the rope,Sensible,edin_semantics,emo_sem_emo_sem,0.950210521696135,2,1,1,1,533020.542646365,120,A
19,3,4/3/91,25,f,49,Josh scrubbed the pot,Sensible,edin_semantics,emo_sem_emo_sem,1.16196510032751,2,2,2,1,533022.4479613,131,A
19,3,4/3/91,25,f,50,The herbs chopped Phil,Non-sensible,edin_semantics,emo_sem_emo_sem,1.36197036027443,2,2,2,1,533024.55321222,27,A
19,3,4/3/91,25,f,51,Owen swallowed the gum,Sensible,edin_semantics,emo_sem_emo_sem,0.926935747847892,1,2,2,1,533026.223304408,97,A
19,3,4/3/91,25,f,52,Alex wrote the report,Sensible,edin_semantics,emo_sem_emo_sem,1.25646767381113,1,2,2,1,533028.222705621,149,A
19,3,4/3/91,25,f,53,The house built Kate,Non-sensible,edin_semantics,emo_sem_emo_sem,2.3266396576073,2,1,1,1,533031.292380166,46,A
19,3,4/3/91,25,f,54,Leo carried the wallet,Sensible,edin_semantics,emo_sem_emo_sem,1.33859359694179,2,1,1,1,533033.374113846,150,A
19,3,4/3/91,25,f,55,The flour weighed Jen,Non-sensible,edin_semantics,emo_sem_emo_sem,1.03213823877741,1,1,1,1,533035.150048044,64,A
19,3,4/3/91,25,f,56,Josh crushed the ice,Sensible,edin_semantics,emo_sem_emo_sem,0.915329470997676,1,2,2,1,533036.808356276,81,A
19,3,4/3/91,25,f,57,The floor cleaned Tim,Non-sensible,edin_semantics,emo_sem_emo_sem,0.856146695557982,1,2,2,1,533038.407922403,5,A
19,3,4/3/91,25,f,58,The spoon licked Will,Non-sensible,edin_semantics,emo_sem_emo_sem,0.973709800746292,1,2,2,1,533040.125028544,21,A
19,3,4/3/91,25,f,59,Adam chewed the fat,Sensible,edin_semantics,emo_sem_emo_sem,1.25629127689172,2,1,1,1,533042.12442206,106,A
19,3,4/3/91,25,f,60,Zoe paid the debt,Sensible,edin_semantics,emo_sem_emo_sem,1.16223803453613,2,1,1,1,533044.029721921,134,A
19,3,4/3/91,25,f,61,Jay squeezed the lemon,Sensible,edin_semantics,emo_sem_emo_sem,1.09162986918818,2,1,1,1,533045.86448546,76,A
19,3,4/3/91,25,f,62,Liz weighed the sugar,Sensible,edin_semantics,emo_sem_emo_sem,1.6910837442847,2,2,2,1,533048.299044442,139,A
19,3,4/3/91,25,f,63,The lever pulled Hugh,Non-sensible,edin_semantics,emo_sem_emo_sem,0.844700137968175,1,2,2,1,533049.886833669,45,A
19,3,4/3/91,25,f,64,Tom grated the carrots,Sensible,edin_semantics,emo_sem_emo_sem,0.903051282162778,1,1,1,1,533051.533905736,140,A
19,3,4/3/91,25,f,65,The plans cancelled Ian,Non-sensible,edin_semantics,emo_sem_emo_sem,1.79612234630622,2,2,2,1,533054.073788442,7,A
19,3,4/3/91,25,f,66,Jack posted the gift,Sensible,edin_semantics,emo_sem_emo_sem,2.58537002303638,2,2,2,1,533057.402164166,111,A
19,3,4/3/91,25,f,67,The puzzle solved Joe,Non-sensible,edin_semantics,emo_sem_emo_sem,2.40858790080529,2,1,1,1,533060.554214476,34,A
19,3,4/3/91,25,f,68,Erin tidied the garage,Sensible,edin_semantics,emo_sem_emo_sem,4.7959260646021,2,2,2,1,533066.093721295,77,A
19,3,4/3/91,25,f,69,Ian dented the bowl,Sensible,edin_semantics,emo_sem_emo_sem,1.24413175496738,2,1,1,1,533068.081350418,146,A
19,3,4/3/91,25,f,70,The picture painted Ryan,Non-sensible,edin_semantics,emo_sem_emo_sem,1.44455234950874,1,2,2,1,533070.268941503,35,A
19,3,4/3/91,25,f,71,Ryan knitted the socks,Sensible,edin_semantics,emo_sem_emo_sem,6.90155896404758,2,2,2,1,533077.913730353,141,A
19,3,4/3/91,25,f,72,The photo took Beth,Non-sensible,edin_semantics,emo_sem_emo_sem,1.02099732903298,1,2,2,1,533079.677891499,53,A
19,3,4/3/91,25,f,73,The milk sniffed Phil,Non-sensible,edin_semantics,emo_sem_emo_sem,2.04139939846937,2,1,1,1,533082.465300157,18,A
19,3,4/3/91,25,f,74,Phil cancelled the party,Sensible,edin_semantics,emo_sem_emo_sem,1.12617031345144,1,1,1,1,533084.335336027,82,A
19,3,4/3/91,25,f,75,The fence jumped Jon,Non-sensible,edin_semantics,emo_sem_emo_sem,1.22028096509166,2,2,2,1,533086.299446948,17,A
19,3,4/3/91,25,f,76,The shelf dusted Jake,Non-sensible,edin_semantics,emo_sem_emo_sem,1.87921011378057,2,2,2,1,533088.922205424,47,A
19,3,4/3/91,25,f,77,Josh taught the rules,Sensible,edin_semantics,emo_sem_emo_sem,2.62006890377961,2,1,1,1,533092.285909926,90,A
19,3,4/3/91,25,f,78,Kate hugged the pillow,Sensible,edin_semantics,emo_sem_emo_sem,2.05532898346428,2,1,1,1,533095.085037435,86,A
19,3,4/3/91,25,f,79,The story wrote Ewan,Non-sensible,edin_semantics,emo_sem_emo_sem,1.26805438671727,2,1,1,1,533097.096200795,74,A
19,3,4/3/91,25,f,80,John carried the kettle,Sensible,edin_semantics,emo_sem_emo_sem,1.82031406357419,2,2,2,1,533099.660154947,105,A
19,3,4/3/91,25,f,81,The teeth brushed Carl,Non-sensible,edin_semantics,emo_sem_emo_sem,1.47950876981486,2,1,1,1,533101.883013552,72,A
19,3,4/3/91,25,f,82,The coins polished Jon,Non-sensible,edin_semantics,emo_sem_emo_sem,2.13749980763532,2,2,2,1,533104.764489886,29,A
19,3,4/3/91,25,f,83,Sam sucked the candy,Sensible,edin_semantics,emo_sem_emo_sem,1.66728298680391,2,2,2,1,533107.175523931,87,A
19,3,4/3/91,25,f,84,Mike ate the steak,Sensible,edin_semantics,emo_sem_emo_sem,3.13749243097845,2,1,1,1,533111.056742404,142,A
19,3,4/3/91,25,f,85,The garden watered Jeff,Non-sensible,edin_semantics,emo_sem_emo_sem,1.10258379823063,2,1,1,1,533112.903195286,54,A
19,3,4/3/91,25,f,86,Rose built the shed,Sensible,edin_semantics,emo_sem_emo_sem,1.58503518952057,1,2,2,1,533115.231957801,121,A
19,3,4/3/91,25,f,87,The table wiped Beth,Non-sensible,edin_semantics,emo_sem_emo_sem,1.33796722744592,1,1,1,1,533117.313694368,40,A
19,3,4/3/91,25,f,88,The room tidied Sam,Non-sensible,edin_semantics,emo_sem_emo_sem,0.902905033086427,1,1,1,1,533118.960238848,2,A
19,3,4/3/91,25,f,89,The handle pulled Tim,Non-sensible,edin_semantics,emo_sem_emo_sem,2.0203709595371,2,2,2,1,533121.724122249,73,A
19,3,4/3/91,25,f,90,Tom visited the hospital,Sensible,edin_semantics,emo_sem_emo_sem,3.26681383512914,2,2,2,1,533125.734678804,91,A
19,3,4/3/91,25,f,91,The tomato sliced Liz,Non-sensible,edin_semantics,emo_sem_emo_sem,2.43177640053909,2,2,2,1,533128.910216526,3,A
19,3,4/3/91,25,f,92,The book read Sean,Non-sensible,edin_semantics,emo_sem_emo_sem,1.71378795418423,2,1,1,1,533131.368281843,4,A
19,3,4/3/91,25,f,93,The pen described John,Non-sensible,edin_semantics,emo_sem_emo_sem,4.58392613392789,2,1,1,1,533136.696109774,42,A
19,3,4/3/91,25,f,94,The room searched Jen,Non-sensible,edin_semantics,emo_sem_emo_sem,1.06697855785023,1,1,1,1,533138.507356714,10,A
19,3,4/3/91,25,f,95,The thread measured Amy,Non-sensible,edin_semantics,emo_sem_emo_sem,1.19672748399898,2,2,2,1,533140.447906136,51,A
19,3,4/3/91,25,f,96,The mirror kissed Max,Non-sensible,edin_semantics,emo_sem_emo_sem,0.878619023715146,1,2,2,1,533142.070963204,23,A
19,3,4/3/91,25,f,97,The trolley pushed Matt,Non-sensible,edin_semantics,emo_sem_emo_sem,1.14999897370581,1,1,1,1,533143.964530746,26,A
19,3,4/3/91,25,f,98,Luke fixed the radio,Sensible,edin_semantics,emo_sem_emo_sem,0.949827259290032,1,1,1,1,533145.658119647,112,A
19,3,4/3/91,25,f,99,Hugh kissed the rose,Sensible,edin_semantics,emo_sem_emo_sem,1.12584542238619,1,1,1,1,533147.528147819,98,A
19,3,4/3/91,25,f,100,Fred served the dessert,Sensible,edin_semantics,emo_sem_emo_sem,1.19690003234427,1,2,2,1,533149.468740218,145,A
19,3,4/3/91,25,f,101,Sara jumped the hedge,Sensible,edin_semantics,emo_sem_emo_sem,2.29040484060533,2,1,1,1,533152.503140507,92,A
19,3,4/3/91,25,f,102,The papers filed Lara,Non-sensible,edin_semantics,emo_sem_emo_sem,0.973305691382848,1,1,1,1,533154.220226442,24,A
19,3,4/3/91,25,f,103,The hill climbed Luke,Non-sensible,edin_semantics,emo_sem_emo_sem,0.914680971764028,1,1,1,1,533155.878583744,68,A
19,3,4/3/91,25,f,104,The cake iced Mary,Non-sensible,edin_semantics,emo_sem_emo_sem,1.18464076612145,1,1,1,1,533157.807419127,44,A
19,3,4/3/91,25,f,105,Liam mixed the nuts,Sensible,edin_semantics,emo_sem_emo_sem,1.49088444781955,1,2,2,1,533160.042082857,83,A
19,3,4/3/91,25,f,106,Lucy counted the shoes,Sensible,edin_semantics,emo_sem_emo_sem,2.1377663272433,2,2,2,1,533162.92356368,123,A
19,3,4/3/91,25,f,107,The letter typed Phil,Non-sensible,edin_semantics,emo_sem_emo_sem,0.961097419844009,1,2,2,1,533164.62896829,49,A
19,3,4/3/91,25,f,108,The sofa sold Carl,Non-sensible,edin_semantics,emo_sem_emo_sem,1.05494443816133,1,1,1,1,533166.428402408,38,A
19,3,4/3/91,25,f,109,The card posted Erin,Non-sensible,edin_semantics,emo_sem_emo_sem,0.819321750546806,1,1,1,1,533167.992613138,36,A
19,3,4/3/91,25,f,110,Ben climbed the stairs,Sensible,edin_semantics,emo_sem_emo_sem,1.25593206856865,1,2,2,1,533169.992011785,143,A
19,3,4/3/91,25,f,111,The lolly sucked Leah,Non-sensible,edin_semantics,emo_sem_emo_sem,0.879517685854808,2,1,1,1,533171.615053137,12,A
19,3,4/3/91,25,f,112,The dish served Kate,Non-sensible,edin_semantics,emo_sem_emo_sem,1.18446725560352,1,1,1,1,533173.543922195,70,A
19,3,4/3/91,25,f,113,The towels passed Phil,Non-sensible,edin_semantics,emo_sem_emo_sem,1.03213086212054,1,2,2,1,533175.319846131,43,A
19,3,4/3/91,25,f,114,Joe entered the office,Sensible,edin_semantics,emo_sem_emo_sem,1.00836313911714,1,2,2,1,533177.072239997,133,A
19,3,4/3/91,25,f,115,The wall punched Jane,Non-sensible,edin_semantics,emo_sem_emo_sem,1.5727294186363,1,1,1,1,533179.389209254,50,A
19,3,4/3/91,25,f,116,The toffee chewed Ben,Non-sensible,edin_semantics,emo_sem_emo_sem,1.80741591961123,2,2,2,1,533181.941371111,31,A
19,3,4/3/91,25,f,117,The money offered Matt,Non-sensible,edin_semantics,emo_sem_emo_sem,1.06697086058557,1,2,2,1,533183.752590469,9,A
19,3,4/3/91,25,f,118,The garlic crushed Erin,Non-sensible,edin_semantics,emo_sem_emo_sem,0.984775982331485,1,1,1,1,533185.481512639,6,A
19,3,4/3/91,25,f,119,The museum visited Mary,Non-sensible,edin_semantics,emo_sem_emo_sem,1.07823396520689,1,1,1,1,533187.304488372,16,A
19,3,4/3/91,25,f,120,The bowl scrubbed Liz,Non-sensible,edin_semantics,emo_sem_emo_sem,0.89022979058791,1,1,1,1,533188.939292514,56,A
19,3,4/3/91,25,f,121,Max searched the internet,Sensible,edin_semantics,emo_sem_emo_sem,1.61961989337578,2,2,2,1,533191.303319983,85,A
19,3,4/3/91,25,f,122,The number dialed Tom,Non-sensible,edin_semantics,emo_sem_emo_sem,0.92601816309616,1,2,2,1,533192.973413133,63,A
19,3,4/3/91,25,f,123,Ian labeled the box,Sensible,edin_semantics,emo_sem_emo_sem,0.761384337558411,1,1,1,1,533194.478783297,136,A
19,3,4/3/91,25,f,124,Jack cleaned the bath,Sensible,edin_semantics,emo_sem_emo_sem,1.31454395945184,2,1,1,1,533196.537012567,80,A
19,3,4/3/91,25,f,125,Eve typed the message,Sensible,edin_semantics,emo_sem_emo_sem,1.11417981190607,2,1,1,1,533198.395261273,124,A
19,3,4/3/91,25,f,126,Ryan stroked the blanket,Sensible,edin_semantics,emo_sem_emo_sem,0.713909828453325,1,1,1,1,533199.853648594,116,A
19,3,4/3/91,25,f,127,Ben got the radio,Sensible,edin_semantics,emo_sem_emo_sem,2.32570828183088,2,1,1,1,533202.923334364,88,A
19,3,4/3/91,25,f,128,Max kicked the door,Sensible,edin_semantics,emo_sem_emo_sem,1.12566710112151,1,1,1,1,533204.793388835,114,A
19,3,4/3/91,25,f,129,The tree hugged Amy,Non-sensible,edin_semantics,emo_sem_emo_sem,1.3024213204626,1,2,2,1,533206.839824847,11,A
19,3,4/3/91,25,f,130,Jay painted the portrait,Sensible,edin_semantics,emo_sem_emo_sem,1.10223196644802,1,1,1,1,533208.68632231,110,A
19,3,4/3/91,25,f,131,The jumper wore Joe,Non-sensible,edin_semantics,emo_sem_emo_sem,1.18453428638168,2,2,2,1,533210.615170521,25,A
19,3,4/3/91,25,f,132,Fred lent the car,Sensible,edin_semantics,emo_sem_emo_sem,1.20887802564539,1,1,1,1,533212.567494599,94,A
19,3,4/3/91,25,f,133,The movie watched Ella,Non-sensible,edin_semantics,emo_sem_emo_sem,2.0902879696805,1,2,2,1,533215.401937416,33,A
19,3,4/3/91,25,f,134,Jay sold the bed,Sensible,edin_semantics,emo_sem_emo_sem,2.04382213030476,2,2,2,1,533218.189340301,113,A
19,3,4/3/91,25,f,135,The shirt ironed Josh,Non-sensible,edin_semantics,emo_sem_emo_sem,1.26743122446351,2,2,2,1,533220.20055658,55,A
19,3,4/3/91,25,f,136,The sheets counted Bill,Non-sensible,edin_semantics,emo_sem_emo_sem,0.949661766993813,1,1,1,1,533221.894129125,48,A
19,3,4/3/91,25,f,137,Luke read the poster,Sensible,edin_semantics,emo_sem_emo_sem,0.984886310528964,1,2,2,1,533223.62300896,79,A
19,3,4/3/91,25,f,138,Jack drank the beer,Sensible,edin_semantics,emo_sem_emo_sem,1.45497708756011,2,2,2,1,533225.822411583,135,A
19,3,4/3/91,25,f,139,Tim sniffed the perfume,Sensible,edin_semantics,emo_sem_emo_sem,1.89021439605858,2,2,2,1,533228.456875439,93,A
19,3,4/3/91,25,f,140,The bill paid Mike,Non-sensible,edin_semantics,emo_sem_emo_sem,0.901693346444517,1,2,2,1,533230.103426655,59,A
19,3,4/3/91,25,f,141,The cheese grated Andy,Non-sensible,edin_semantics,emo_sem_emo_sem,1.10282882954925,2,2,2,1,533231.949915778,65,A
19,3,4/3/91,25,f,142,The gun carried Ryan,Non-sensible,edin_semantics,emo_sem_emo_sem,1.04369897313882,2,2,2,1,533233.737643876,75,A
19,3,4/3/91,25,f,143,Adam watched the opera,Sensible,edin_semantics,emo_sem_emo_sem,1.11425935104489,2,1,1,1,533235.595888412,108,A
19,3,4/3/91,25,f,144,Fred chopped the carrots,Sensible,edin_semantics,emo_sem_emo_sem,0.820106877363287,1,1,1,1,533237.160160399,102,A
19,3,4/3/91,25,f,145,The ham ate Tim,Non-sensible,edin_semantics,emo_sem_emo_sem,1.10212997696362,1,2,2,1,533239.006682878,67,A
19,3,4/3/91,25,f,146,The fur stroked Rob,Non-sensible,edin_semantics,emo_sem_emo_sem,0.973293183255009,1,2,2,1,533240.723805697,41,A
19,3,4/3/91,25,f,147,The jar labeled Liz,Non-sensible,edin_semantics,emo_sem_emo_sem,1.19603087648284,1,2,2,1,533242.664374682,61,A
19,3,4/3/91,25,f,148,Erin punched the monitor,Sensible,edin_semantics,emo_sem_emo_sem,2.57202351011802,2,2,2,1,533245.981050479,125,A
19,3,4/3/91,25,f,149,The fruits mixed Jack,Non-sensible,edin_semantics,emo_sem_emo_sem,1.52572829485871,1,1,1,1,533248.250936187,8,A
19,3,4/3/91,25,f,150,Bill trimmed the hair,Sensible,edin_semantics,emo_sem_emo_sem,1.30186711344868,2,2,2,1,533250.297365464,107,A
19,3,4/3/91,25,f,151,Lucy wiped the desk,Sensible,edin_semantics,emo_sem_emo_sem,1.34972873365041,2,2,2,1,533252.390873479,115,A
19,3,4/3/91,25,f,152,Kate wore the dress,Sensible,edin_semantics,emo_sem_emo_sem,1.87859561108053,2,1,1,1,533255.013596997,100,A
19,3,4/3/91,25,f,153,Eve ironed the trousers,Sensible,edin_semantics,emo_sem_emo_sem,1.10302126256283,1,1,1,1,533256.860124927,130,A
19,3,4/3/91,25,f,154,Ella mashed the turnip,Sensible,edin_semantics,emo_sem_emo_sem,1.00778840575367,1,2,2,1,533258.612523926,103,A
19,3,4/3/91,25,f,155,The box lifted Kate,Non-sensible,edin_semantics,emo_sem_emo_sem,1.45448221405968,2,2,2,1,533260.811854387,69,A
19,3,4/3/91,25,f,156,The juice drank Matt,Non-sensible,edin_semantics,emo_sem_emo_sem,1.3020069480408,1,1,1,1,533262.858311246,60,A
19,3,4/3/91,25,f,157,The laptop fixed Jen,Non-sensible,edin_semantics,emo_sem_emo_sem,1.70140200282913,2,2,2,1,533265.304657713,37,A
19,3,4/3/91,25,f,158,The kettle got Lily,Non-sensible,edin_semantics,emo_sem_emo_sem,1.31407795078121,1,2,2,1,533267.362866457,13,A
19,3,4/3/91,25,f,159,The dishes washed Mark,Non-sensible,edin_semantics,emo_sem_emo_sem,0.808640755829401,1,2,2,1,533268.915329471,57,A
19,3,4/3/91,25,f,160,The wine stored Leo,Non-sensible,edin_semantics,emo_sem_emo_sem,1.93734990234952,2,1,1,1,533271.596871745,52,A
19,3,4/3/91,25,f,161,Ian mailed the invite,Sensible,edin_semantics,emo_sem_emo_sem,1.20789822086226,1,2,2,1,533273.549229498,89,A
19,3,4/3/91,25,f,162,The room entered Ryan,Non-sensible,edin_semantics,emo_sem_emo_sem,1.09072960342746,2,1,1,1,533275.383966096,58,A
19,3,4/3/91,25,f,163,Ian filed the report,Sensible,edin_semantics,emo_sem_emo_sem,1.12625851202756,1,2,2,1,533277.254034679,99,A
19,3,4/3/91,25,f,164,The bike kicked Matt,Non-sensible,edin_semantics,emo_sem_emo_sem,1.33736394986045,1,2,2,1,533279.335721534,39,A
19,3,4/3/91,25,f,165,Erin described the church,Sensible,edin_semantics,emo_sem_emo_sem,0.985095741809346,1,2,2,1,533281.064625423,117,A
19,3,4/3/91,25,f,166,The ball squeezed Josh,Non-sensible,edin_semantics,emo_sem_emo_sem,2.32580674334895,2,2,2,1,533284.134307985,1,A
19,3,4/3/91,25,f,167,The parcel mailed Rob,Non-sensible,edin_semantics,emo_sem_emo_sem,1.05555797880515,1,1,1,1,533285.933789571,14,A
19,3,4/3/91,25,f,168,Tom whisked the cream,Sensible,edin_semantics,emo_sem_emo_sem,0.961183052510023,2,2,2,1,533287.639142223,137,A
19,3,4/3/91,25,f,169,Lucy cut the ribbon,Sensible,edin_semantics,emo_sem_emo_sem,3.19609694520477,2,2,2,1,533291.579122364,95,A
19,3,4/3/91,25,f,170,Tom offered the sweets,Sensible,edin_semantics,emo_sem_emo_sem,1.73757299629506,2,1,1,1,533294.060737634,84,A
19,3,4/3/91,25,f,171,The paper cut Jon,Non-sensible,edin_semantics,emo_sem_emo_sem,1.05605381447822,2,1,1,1,533295.860141605,20,A
19,3,4/3/91,25,f,172,Dan brushed the hair,Sensible,edin_semantics,emo_sem_emo_sem,2.18506155291107,2,2,2,1,533298.78872041,147,A
19,3,4/3/91,25,f,173,Tim took the ticket,Sensible,edin_semantics,emo_sem_emo_sem,1.34967292798683,1,1,1,1,533300.882259536,128,A
