subject_column,AssignedList_column,subject_dob_column,subject_age_column,subject_gender_column,trialnum_column,Stim_column,Type_column,Experiment_column,OrderGroup_column,ReactionTime_column,StimSide_column,StimPosition_column,Response_column,Valid_column,TrialEndSecs_column,PairID_column,List_column
2,2,26/4/96,19,m,1,Beth washed the pan,Sensible,edin_semantics,sem_emo_sem_emo,2.4238978719477,2,1,1,1,9947.72685511846,132,A
2,2,26/4/96,19,m,2,The book read Sean,Non-sensible,edin_semantics,sem_emo_sem_emo,1.4984422546986,1,1,1,1,9949.97329125892,4,A
2,2,26/4/96,19,m,3,The story wrote Ewan,Non-sensible,edin_semantics,sem_emo_sem_emo,1.71208684630437,1,1,1,1,9952.43138030923,74,A
2,2,26/4/96,19,m,4,The bowl scrubbed Liz,Non-sensible,edin_semantics,sem_emo_sem_emo,1.67772760977823,1,1,1,1,9954.85415469306,56,A
2,2,26/4/96,19,m,5,The money offered Matt,Non-sensible,edin_semantics,sem_emo_sem_emo,2.24400282491843,2,2,2,1,9957.84147239484,9,A
2,2,26/4/96,19,m,6,Fred served the dessert,Sensible,edin_semantics,sem_emo_sem_emo,1.57375252087331,2,2,2,1,9960.15843716164,145,A
2,2,26/4/96,19,m,7,Adam chewed the fat,Sensible,edin_semantics,sem_emo_sem_emo,1.72679514350421,2,1,1,1,9962.62828354877,106,A
2,2,26/4/96,19,m,8,Liam sliced the onion,Sensible,edin_semantics,sem_emo_sem_emo,1.44439872378462,1,1,1,1,9964.81590189508,78,A
2,2,26/4/96,19,m,9,Eve typed the message,Sensible,edin_semantics,sem_emo_sem_emo,1.59745257167378,1,1,1,1,9967.15636241296,124,A
2,2,26/4/96,19,m,10,The flour weighed Jen,Non-sensible,edin_semantics,sem_emo_sem_emo,3.23257069989268,1,1,1,1,9971.13161135714,64,A
2,2,26/4/96,19,m,11,Liz weighed the sugar,Sensible,edin_semantics,sem_emo_sem_emo,2.45620288598184,1,2,2,1,9974.33068780693,139,A
2,2,26/4/96,19,m,12,The plans cancelled Ian,Non-sensible,edin_semantics,sem_emo_sem_emo,1.40917385938519,2,2,2,1,9976.48295716954,7,A
2,2,26/4/96,19,m,13,The room searched Jen,Non-sensible,edin_semantics,sem_emo_sem_emo,3.1735043464214,1,1,1,1,9980.39941622236,10,A
2,2,26/4/96,19,m,14,Jack posted the gift,Sensible,edin_semantics,sem_emo_sem_emo,1.60958483217291,2,2,2,1,9982.75168603398,111,A
2,2,26/4/96,19,m,15,Josh crushed the ice,Sensible,edin_semantics,sem_emo_sem_emo,1.22143460099687,2,2,2,1,9984.71578925762,81,A
2,2,26/4/96,19,m,16,The towels passed Phil,Non-sensible,edin_semantics,sem_emo_sem_emo,1.13845074741039,2,2,2,1,9986.59755776839,43,A
2,2,26/4/96,19,m,17,The letter typed Phil,Non-sensible,edin_semantics,sem_emo_sem_emo,1.13883561345028,1,2,2,1,9988.47939363072,49,A
2,2,26/4/96,19,m,18,Erin tidied the garage,Sensible,edin_semantics,sem_emo_sem_emo,1.72673837576258,1,2,2,1,9990.94921083218,77,A
2,2,26/4/96,19,m,19,Andy pulled the rope,Sensible,edin_semantics,sem_emo_sem_emo,1.31523158672644,2,1,1,1,9993.00739872892,148,A
2,2,26/4/96,19,m,20,Emma pulled the rope,Sensible,edin_semantics,sem_emo_sem_emo,1.46818953882757,2,1,1,1,9995.21851699568,120,A
2,2,26/4/96,19,m,21,The mirror kissed Max,Non-sensible,edin_semantics,sem_emo_sem_emo,1.6915106248689,1,2,2,1,9997.65308399573,23,A
2,2,26/4/96,19,m,22,The milk sniffed Phil,Non-sensible,edin_semantics,sem_emo_sem_emo,3.66755463814843,1,1,1,1,10002.0635128391,18,A
2,2,26/4/96,19,m,23,Leo passed the salt,Sensible,edin_semantics,sem_emo_sem_emo,1.22137783325525,1,1,1,1,10004.0276564737,118,A
2,2,26/4/96,19,m,24,The bike kicked Matt,Non-sensible,edin_semantics,sem_emo_sem_emo,1.70376604249941,1,2,2,1,10006.4739913944,39,A
2,2,26/4/96,19,m,25,Kate wore the dress,Sensible,edin_semantics,sem_emo_sem_emo,2.4915015163715,1,1,1,1,10009.708279559,100,A
2,2,26/4/96,19,m,26,The lorry dented Lily,Non-sensible,edin_semantics,sem_emo_sem_emo,1.57453989264832,2,2,2,1,10012.0255836494,71,A
2,2,26/4/96,19,m,27,Fred stored the rice,Sensible,edin_semantics,sem_emo_sem_emo,1.29162614882443,1,2,2,1,10014.0599422444,127,A
2,2,26/4/96,19,m,28,The puzzle solved Joe,Non-sensible,edin_semantics,sem_emo_sem_emo,1.70358515545922,2,1,1,1,10016.5062540732,34,A
2,2,26/4/96,19,m,29,The lolly sucked Leah,Non-sensible,edin_semantics,sem_emo_sem_emo,2.4328161802805,2,1,1,1,10019.6817571572,12,A
2,2,26/4/96,19,m,30,Leo carried the wallet,Sensible,edin_semantics,sem_emo_sem_emo,1.70309124404048,2,1,1,1,10022.1281052275,150,A
2,2,26/4/96,19,m,31,Anna polished the trophy,Sensible,edin_semantics,sem_emo_sem_emo,2.185304659959,1,1,1,1,10025.0566272649,104,A
2,2,26/4/96,19,m,32,Eve ironed the trousers,Sensible,edin_semantics,sem_emo_sem_emo,1.62098167781005,2,1,1,1,10027.4206576206,130,A
2,2,26/4/96,19,m,33,The thread measured Amy,Non-sensible,edin_semantics,sem_emo_sem_emo,1.92640591564668,2,2,2,1,10030.090436143,51,A
2,2,26/4/96,19,m,34,Ben got the radio,Sensible,edin_semantics,sem_emo_sem_emo,1.83237191658009,1,1,1,1,10032.6660966373,88,A
2,2,26/4/96,19,m,35,Amy lifted the crate,Sensible,edin_semantics,sem_emo_sem_emo,1.77366252636421,1,1,1,1,10035.1830082926,144,A
2,2,26/4/96,19,m,36,Tom grated the carrots,Sensible,edin_semantics,sem_emo_sem_emo,1.42109989582968,1,1,1,1,10037.3470667435,140,A
2,2,26/4/96,19,m,37,Kate hugged the pillow,Sensible,edin_semantics,sem_emo_sem_emo,1.71498007676746,1,1,1,1,10039.8051679812,86,A
2,2,26/4/96,19,m,38,The bushes trimmed Jon,Non-sensible,edin_semantics,sem_emo_sem_emo,1.94985997290496,2,1,1,1,10042.4984669503,32,A
2,2,26/4/96,19,m,39,Lucy wiped the desk,Sensible,edin_semantics,sem_emo_sem_emo,1.58581422259704,2,2,2,1,10044.8271909782,115,A
2,2,26/4/96,19,m,40,The photo took Beth,Non-sensible,edin_semantics,sem_emo_sem_emo,1.47966464056117,1,2,2,1,10047.0500688269,53,A
2,2,26/4/96,19,m,41,Max kicked the door,Sensible,edin_semantics,sem_emo_sem_emo,1.85649499930878,1,1,1,1,10049.6492443155,114,A
2,2,26/4/96,19,m,42,Josh scrubbed the pot,Sensible,edin_semantics,sem_emo_sem_emo,1.16224958049497,1,2,2,1,10051.5545740046,131,A
2,2,26/4/96,19,m,43,The hill climbed Luke,Non-sensible,edin_semantics,sem_emo_sem_emo,1.40865525239496,2,1,1,1,10053.7068513853,68,A
2,2,26/4/96,19,m,44,Rob measured the curtains,Sensible,edin_semantics,sem_emo_sem_emo,2.84392014286277,2,1,1,1,10057.294037976,126,A
2,2,26/4/96,19,m,45,Dan brushed the hair,Sensible,edin_semantics,sem_emo_sem_emo,2.13828397212637,2,2,2,1,10060.1754992354,147,A
2,2,26/4/96,19,m,46,Ian mailed the invite,Sensible,edin_semantics,sem_emo_sem_emo,2.51460630769907,2,2,2,1,10063.4333726324,89,A
2,2,26/4/96,19,m,47,The shirt ironed Josh,Non-sensible,edin_semantics,sem_emo_sem_emo,1.95014124583759,1,2,2,1,10066.1266562069,55,A
2,2,26/4/96,19,m,48,The cheese grated Andy,Non-sensible,edin_semantics,sem_emo_sem_emo,1.49161922123494,1,2,2,1,10068.3612852986,65,A
2,2,26/4/96,19,m,49,The museum visited Mary,Non-sensible,edin_semantics,sem_emo_sem_emo,1.31525499940835,2,1,1,1,10070.4195732605,16,A
2,2,26/4/96,19,m,50,The dish served Kate,Non-sensible,edin_semantics,sem_emo_sem_emo,1.85599114551587,2,1,1,1,10073.0187429762,70,A
2,2,26/4/96,19,m,51,Jay squeezed the lemon,Sensible,edin_semantics,sem_emo_sem_emo,2.10296224977174,1,1,1,1,10075.8649306215,76,A
2,2,26/4/96,19,m,52,Tom offered the sweets,Sensible,edin_semantics,sem_emo_sem_emo,1.47979645718078,2,1,1,1,10078.0878472775,84,A
2,2,26/4/96,19,m,53,Sara jumped the hedge,Sensible,edin_semantics,sem_emo_sem_emo,1.56176843380126,1,1,1,1,10080.3929722819,92,A
2,2,26/4/96,19,m,54,Joe iced the donut,Sensible,edin_semantics,sem_emo_sem_emo,1.42110214088098,2,2,2,1,10082.5570355437,119,A
2,2,26/4/96,19,m,55,The jumper wore Joe,Non-sensible,edin_semantics,sem_emo_sem_emo,1.62153043264152,1,2,2,1,10084.9210383173,25,A
2,2,26/4/96,19,m,56,Ryan stroked the blanket,Sensible,edin_semantics,sem_emo_sem_emo,1.65635407419177,1,1,1,1,10087.3203240059,116,A
2,2,26/4/96,19,m,57,Josh taught the rules,Sensible,edin_semantics,sem_emo_sem_emo,1.25599974085708,2,1,1,1,10089.3197322744,90,A
2,2,26/4/96,19,m,58,Rose built the shed,Sensible,edin_semantics,sem_emo_sem_emo,1.06823963555689,2,2,2,1,10091.130924692,121,A
2,2,26/4/96,19,m,59,The wine stored Leo,Non-sensible,edin_semantics,sem_emo_sem_emo,1.3977821452936,1,1,1,1,10093.2714838638,52,A
2,2,26/4/96,19,m,60,Tim took the ticket,Sensible,edin_semantics,sem_emo_sem_emo,1.64466152314708,1,1,1,1,10095.6589820678,128,A
2,2,26/4/96,19,m,61,The pen described John,Non-sensible,edin_semantics,sem_emo_sem_emo,1.57388850687494,1,1,1,1,10097.9759375337,42,A
2,2,26/4/96,19,m,62,Jack cleaned the bath,Sensible,edin_semantics,sem_emo_sem_emo,1.59749202044441,1,1,1,1,10100.3164073525,80,A
2,2,26/4/96,19,m,63,The gun carried Ryan,Non-sensible,edin_semantics,sem_emo_sem_emo,1.3857031246007,2,2,2,1,10102.4451848127,75,A
2,2,26/4/96,19,m,64,The trolley pushed Matt,Non-sensible,edin_semantics,sem_emo_sem_emo,1.91535288367231,1,1,1,1,10105.1032486543,26,A
2,2,26/4/96,19,m,65,The wall punched Jane,Non-sensible,edin_semantics,sem_emo_sem_emo,1.46802244282298,2,1,1,1,10107.314324265,50,A
2,2,26/4/96,19,m,66,The card posted Erin,Non-sensible,edin_semantics,sem_emo_sem_emo,1.44437402821313,2,1,1,1,10109.5019310654,36,A
2,2,26/4/96,19,m,67,The eggs whisked Dan,Non-sensible,edin_semantics,sem_emo_sem_emo,1.6566019920665,2,1,1,1,10111.9011747394,62,A
2,2,26/4/96,19,m,68,The potatoes mashed Will,Non-sensible,edin_semantics,sem_emo_sem_emo,3.20894056642101,1,1,1,1,10115.8529417236,28,A
2,2,26/4/96,19,m,69,The dishes washed Mark,Non-sensible,edin_semantics,sem_emo_sem_emo,1.99739477762523,2,2,2,1,10118.5932860761,57,A
2,2,26/4/96,19,m,70,The box lifted Kate,Non-sensible,edin_semantics,sem_emo_sem_emo,1.26776445428732,1,2,2,1,10120.6044776598,69,A
2,2,26/4/96,19,m,71,The jar labeled Liz,Non-sensible,edin_semantics,sem_emo_sem_emo,0.950685189840442,2,2,2,1,10122.2980678442,61,A
2,2,26/4/96,19,m,72,John carried the kettle,Sensible,edin_semantics,sem_emo_sem_emo,1.16236664391727,1,2,2,1,10124.2033798936,105,A
2,2,26/4/96,19,m,73,Max searched the internet,Sensible,edin_semantics,sem_emo_sem_emo,2.17373398315794,1,2,2,1,10127.1201721762,85,A
2,2,26/4/96,19,m,74,The garden watered Jeff,Non-sensible,edin_semantics,sem_emo_sem_emo,2.0561554833148,1,1,1,1,10129.9193035336,54,A
2,2,26/4/96,19,m,75,The house built Kate,Non-sensible,edin_semantics,sem_emo_sem_emo,1.36202392070845,2,1,1,1,10132.0245730553,46,A
2,2,26/4/96,19,m,76,The paper cut Jon,Non-sensible,edin_semantics,sem_emo_sem_emo,1.78567515766736,1,1,1,1,10134.5532295392,20,A
2,2,26/4/96,19,m,77,The parcel mailed Rob,Non-sensible,edin_semantics,sem_emo_sem_emo,1.67986105053023,2,1,1,1,10136.9760145069,14,A
2,2,26/4/96,19,m,78,The toffee chewed Ben,Non-sensible,edin_semantics,sem_emo_sem_emo,1.97393206088054,2,2,2,1,10139.6928368091,31,A
2,2,26/4/96,19,m,79,Phil cancelled the party,Sensible,edin_semantics,sem_emo_sem_emo,1.22123864003697,2,1,1,1,10141.6569679355,82,A
2,2,26/4/96,19,m,80,The number dialed Tom,Non-sensible,edin_semantics,sem_emo_sem_emo,1.4210447316982,2,2,2,1,10143.8210161233,63,A
2,2,26/4/96,19,m,81,Adam watched the opera,Sensible,edin_semantics,sem_emo_sem_emo,2.49128278417265,2,1,1,1,10147.0553780539,108,A
2,2,26/4/96,19,m,82,The juice drank Matt,Non-sensible,edin_semantics,sem_emo_sem_emo,1.31476044654846,1,1,1,1,10149.1135499146,60,A
2,2,26/4/96,19,m,83,The sofa sold Carl,Non-sensible,edin_semantics,sem_emo_sem_emo,2.04433239853643,1,1,1,1,10151.9009431784,38,A
2,2,26/4/96,19,m,84,The ham ate Tim,Non-sensible,edin_semantics,sem_emo_sem_emo,1.24475812452329,2,2,2,1,10153.8886152776,67,A
2,2,26/4/96,19,m,85,Tim sniffed the perfume,Sensible,edin_semantics,sem_emo_sem_emo,2.38533012526023,1,2,2,1,10157.0170941459,93,A
2,2,26/4/96,19,m,86,The floor cleaned Tim,Non-sensible,edin_semantics,sem_emo_sem_emo,0.891668868956913,2,2,2,1,10158.6518777614,5,A
2,2,26/4/96,19,m,87,The bucket lent Max,Non-sensible,edin_semantics,sem_emo_sem_emo,1.11552074941028,1,2,2,1,10160.5101466724,19,A
2,2,26/4/96,19,m,88,The handle pulled Tim,Non-sensible,edin_semantics,sem_emo_sem_emo,2.02067917310342,1,2,2,1,10163.2740281491,73,A
2,2,26/4/96,19,m,89,Jay sold the bed,Sensible,edin_semantics,sem_emo_sem_emo,4.70280419811934,2,2,2,1,10168.7194461265,113,A
2,2,26/4/96,19,m,90,The tomato sliced Liz,Non-sensible,edin_semantics,sem_emo_sem_emo,3.11495692066092,1,2,2,1,10172.5771399835,3,A
2,2,26/4/96,19,m,91,The spoon licked Will,Non-sensible,edin_semantics,sem_emo_sem_emo,1.45654990686126,2,2,2,1,10174.7765143837,21,A
2,2,26/4/96,19,m,92,Hugh kissed the rose,Sensible,edin_semantics,sem_emo_sem_emo,1.20949637712874,2,1,1,1,10176.7288281984,98,A
2,2,26/4/96,19,m,93,Ian pushed the button,Sensible,edin_semantics,sem_emo_sem_emo,1.57405560288134,2,2,2,1,10179.0458186229,101,A
2,2,26/4/96,19,m,94,Ian filed the report,Sensible,edin_semantics,sem_emo_sem_emo,1.11540079949555,2,2,2,1,10180.9040227481,99,A
2,2,26/4/96,19,m,95,Tom whisked the cream,Sensible,edin_semantics,sem_emo_sem_emo,0.985910695684652,1,2,2,1,10182.6329106008,137,A
2,2,26/4/96,19,m,96,Lucy cut the ribbon,Sensible,edin_semantics,sem_emo_sem_emo,1.3268125266186,2,2,2,1,10184.7029251102,95,A
2,2,26/4/96,19,m,97,Ella mashed the turnip,Sensible,edin_semantics,sem_emo_sem_emo,0.986074263752016,2,2,2,1,10186.4317613266,103,A
2,2,26/4/96,19,m,98,Ryan knitted the socks,Sensible,edin_semantics,sem_emo_sem_emo,1.43217698193075,2,2,2,1,10188.6076063,141,A
2,2,26/4/96,19,m,99,Erin punched the monitor,Sensible,edin_semantics,sem_emo_sem_emo,2.51444851262022,2,2,2,1,10191.8654873944,125,A
2,2,26/4/96,19,m,100,The picture painted Ryan,Non-sensible,edin_semantics,sem_emo_sem_emo,1.30339855957573,1,2,2,1,10193.9119288588,35,A
2,2,26/4/96,19,m,101,Ben climbed the stairs,Sensible,edin_semantics,sem_emo_sem_emo,1.40923864516844,2,2,2,1,10196.0641818646,143,A
2,2,26/4/96,19,m,102,The fence jumped Jon,Non-sensible,edin_semantics,sem_emo_sem_emo,1.31529188240529,1,2,2,1,10198.1223944569,17,A
2,2,26/4/96,19,m,103,The fruits mixed Jack,Non-sensible,edin_semantics,sem_emo_sem_emo,1.03210905307606,2,1,1,1,10199.898335711,8,A
2,2,26/4/96,19,m,104,Alex dusted the house,Sensible,edin_semantics,sem_emo_sem_emo,1.20894473580302,1,1,1,1,10201.8506860879,122,A
2,2,26/4/96,19,m,105,Zoe paid the debt,Sensible,edin_semantics,sem_emo_sem_emo,2.77330139372862,1,1,1,1,10205.3672847188,134,A
2,2,26/4/96,19,m,106,The pill swallowed Luke,Non-sensible,edin_semantics,sem_emo_sem_emo,6.30218719371078,2,1,1,1,10212.4123239879,22,A
2,2,26/4/96,19,m,107,The shelf dusted Jake,Non-sensible,edin_semantics,sem_emo_sem_emo,1.98594629579384,1,2,2,1,10215.1408398034,47,A
2,2,26/4/96,19,m,108,The folder carried Dan,Non-sensible,edin_semantics,sem_emo_sem_emo,1.09181011479268,1,1,1,1,10216.9755584406,30,A
2,2,26/4/96,19,m,109,Ian labeled the box,Sensible,edin_semantics,sem_emo_sem_emo,1.20935782535344,1,1,1,1,10218.9278998373,136,A
2,2,26/4/96,19,m,110,The papers filed Lara,Non-sensible,edin_semantics,sem_emo_sem_emo,1.57339940628117,1,1,1,1,10221.2448690942,24,A
2,2,26/4/96,19,m,111,The garlic crushed Erin,Non-sensible,edin_semantics,sem_emo_sem_emo,1.86810512487682,2,1,1,1,10223.8558644604,6,A
2,2,26/4/96,19,m,112,Liam mixed the nuts,Sensible,edin_semantics,sem_emo_sem_emo,1.22086050915095,2,2,2,1,10225.8199792301,83,A
2,2,26/4/96,19,m,113,The cake iced Mary,Non-sensible,edin_semantics,sem_emo_sem_emo,2.49111793321754,2,1,1,1,10229.0543171065,44,A
2,2,26/4/96,19,m,114,Sam sucked the candy,Sensible,edin_semantics,sem_emo_sem_emo,1.4443063559338,2,2,2,1,10231.241893759,87,A
2,2,26/4/96,19,m,115,The ball squeezed Josh,Non-sensible,edin_semantics,sem_emo_sem_emo,2.44427139726758,1,2,2,1,10234.4291743854,1,A
2,2,26/4/96,19,m,116,Fred chopped the carrots,Sensible,edin_semantics,sem_emo_sem_emo,1.8564831326039,2,1,1,1,10237.0284297337,102,A
2,2,26/4/96,19,m,117,Luke watered the plants,Sensible,edin_semantics,sem_emo_sem_emo,1.24421931206598,2,2,2,1,10239.0160469896,129,A
2,2,26/4/96,19,m,118,Hugh dialed the hotline,Sensible,edin_semantics,sem_emo_sem_emo,1.4325721110672,1,1,1,1,10241.1918557214,138,A
2,2,26/4/96,19,m,119,Jay painted the portrait,Sensible,edin_semantics,sem_emo_sem_emo,2.04417781067605,1,1,1,1,10243.9792416086,110,A
2,2,26/4/96,19,m,120,The lever pulled Hugh,Non-sensible,edin_semantics,sem_emo_sem_emo,1.11489758714742,2,2,2,1,10245.8375005773,45,A
2,2,26/4/96,19,m,121,Jane licked the plate,Sensible,edin_semantics,sem_emo_sem_emo,1.09134891698704,2,1,1,1,10247.6722602669,96,A
2,2,26/4/96,19,m,122,The teeth brushed Carl,Non-sensible,edin_semantics,sem_emo_sem_emo,1.10319765950226,2,1,1,1,10249.5188161007,72,A
2,2,26/4/96,19,m,123,The laptop fixed Jen,Non-sensible,edin_semantics,sem_emo_sem_emo,1.08011948807689,2,2,2,1,10251.3417424425,37,A
2,2,26/4/96,19,m,124,Owen swallowed the gum,Sensible,edin_semantics,sem_emo_sem_emo,1.50299489924328,2,2,2,1,10253.5881558117,97,A
2,2,26/4/96,19,m,125,Alex wrote the report,Sensible,edin_semantics,sem_emo_sem_emo,1.585427752947,2,2,2,1,10255.9168445603,149,A
2,2,26/4/96,19,m,126,Bill trimmed the hair,Sensible,edin_semantics,sem_emo_sem_emo,2.24438640807057,1,2,2,1,10258.9041843919,107,A
2,2,26/4/96,19,m,127,Phil solved the problem,Sensible,edin_semantics,sem_emo_sem_emo,1.67982897836009,2,2,2,1,10261.3270084876,109,A
2,2,26/4/96,19,m,128,Erin described the church,Sensible,edin_semantics,sem_emo_sem_emo,3.15005766576178,2,2,2,1,10265.2199775623,117,A
2,2,26/4/96,19,m,129,The fur stroked Rob,Non-sensible,edin_semantics,sem_emo_sem_emo,1.25671366736242,1,2,2,1,10267.2194047534,41,A
2,2,26/4/96,19,m,130,Jack drank the beer,Sensible,edin_semantics,sem_emo_sem_emo,2.29120632411832,2,2,2,1,10270.2537024113,135,A
2,2,26/4/96,19,m,131,The coins polished Jon,Non-sensible,edin_semantics,sem_emo_sem_emo,1.30378438777916,2,2,2,1,10272.3001942291,29,A
2,2,26/4/96,19,m,132,The room entered Ryan,Non-sensible,edin_semantics,sem_emo_sem_emo,1.29189298928031,1,1,1,1,10274.3348587927,58,A
2,2,26/4/96,19,m,133,The movie watched Ella,Non-sensible,edin_semantics,sem_emo_sem_emo,1.27990569499161,2,2,2,1,10276.3577721131,33,A
2,2,26/4/96,19,m,134,The kettle got Lily,Non-sensible,edin_semantics,sem_emo_sem_emo,1.32695428561055,1,2,2,1,10278.4277603234,13,A
2,2,26/4/96,19,m,135,Joe entered the office,Sensible,edin_semantics,sem_emo_sem_emo,1.79733435365597,2,2,2,1,10280.9681770307,133,A
2,2,26/4/96,19,m,136,Ian dented the bowl,Sensible,edin_semantics,sem_emo_sem_emo,1.32383815356661,1,1,1,1,10283.0381386211,146,A
2,2,26/4/96,19,m,137,Luke read the poster,Sensible,edin_semantics,sem_emo_sem_emo,1.40789001041776,2,2,2,1,10285.1904134359,79,A
2,2,26/4/96,19,m,138,The sheets counted Bill,Non-sensible,edin_semantics,sem_emo_sem_emo,1.3272326720471,2,1,1,1,10287.2603994011,48,A
2,2,26/4/96,19,m,139,Mike ate the steak,Sensible,edin_semantics,sem_emo_sem_emo,1.23308128883946,2,1,1,1,10289.2363013347,142,A
2,2,26/4/96,19,m,140,The tree hugged Amy,Non-sensible,edin_semantics,sem_emo_sem_emo,1.10345648191287,2,2,2,1,10291.0827561412,11,A
2,2,26/4/96,19,m,141,The scarf knitted Tom,Non-sensible,edin_semantics,sem_emo_sem_emo,1.20730841368459,2,1,1,1,10293.035135383,66,A
2,2,26/4/96,19,m,142,The room tidied Sam,Non-sensible,edin_semantics,sem_emo_sem_emo,1.44454497288098,2,1,1,1,10295.2227258266,2,A
2,2,26/4/96,19,m,143,Tom visited the hospital,Sensible,edin_semantics,sem_emo_sem_emo,1.24476646328549,1,2,2,1,10297.2103767582,91,A
2,2,26/4/96,19,m,144,Fred lent the car,Sensible,edin_semantics,sem_emo_sem_emo,1.43272445387447,1,1,1,1,10299.3862185244,94,A
2,2,26/4/96,19,m,145,The lesson taught Eve,Non-sensible,edin_semantics,sem_emo_sem_emo,1.64450084157397,1,2,2,1,10301.7737298779,15,A
2,2,26/4/96,19,m,146,The bill paid Mike,Non-sensible,edin_semantics,sem_emo_sem_emo,0.903823579972595,2,2,2,1,10303.4202884699,59,A
2,2,26/4/96,19,m,147,The herbs chopped Phil,Non-sensible,edin_semantics,sem_emo_sem_emo,1.08000915981211,2,2,2,1,10305.2432032657,27,A
2,2,26/4/96,19,m,148,Luke fixed the radio,Sensible,edin_semantics,sem_emo_sem_emo,1.2211703263165,2,1,1,1,10307.2073459381,112,A
2,2,26/4/96,19,m,149,Lucy counted the shoes,Sensible,edin_semantics,sem_emo_sem_emo,1.30332928368807,2,2,2,1,10309.2538175504,123,A
2,2,26/4/96,19,m,150,The table wiped Beth,Non-sensible,edin_semantics,sem_emo_sem_emo,1.08003577971431,1,1,1,1,10311.0767695499,40,A
2,2,26/4/96,19,m,151,The shoes counted Lucy,Non-sensible,edin_semantics,sem_emo_sem_emo,2.31819184802407,2,1,2,0,10353.6875259785,123,B
2,2,26/4/96,19,m,152,Ryan carried the gun,Sensible,edin_semantics,sem_emo_sem_emo,1.65279342186841,2,1,1,1,10356.0868161572,75,B
2,2,26/4/96,19,m,153,The church described Erin,Non-sensible,edin_semantics,sem_emo_sem_emo,1.74975593078489,1,1,1,1,10358.5802076865,117,B
2,2,26/4/96,19,m,154,Tim pulled the handle,Sensible,edin_semantics,sem_emo_sem_emo,2.7260760854515,2,1,1,1,10362.0497538782,73,B
2,2,26/4/96,19,m,155,Jake dusted the shelf,Sensible,edin_semantics,sem_emo_sem_emo,2.1262142523592,1,1,1,1,10364.9194757611,47,B
2,2,26/4/96,19,m,156,Liz scrubbed the bowl,Sensible,edin_semantics,sem_emo_sem_emo,3.43210802676549,1,2,2,1,10369.0946796119,56,B
2,2,26/4/96,19,m,157,The crate lifted Amy,Non-sensible,edin_semantics,sem_emo_sem_emo,1.66781634705512,2,2,2,1,10371.5057479743,144,B
2,2,26/4/96,19,m,158,The button pushed Ian,Non-sensible,edin_semantics,sem_emo_sem_emo,1.73840398618631,2,1,1,1,10373.9873395109,101,B
2,2,26/4/96,19,m,159,Phil passed the towels,Sensible,edin_semantics,sem_emo_sem_emo,1.58512531238375,1,1,1,1,10376.3160500685,43,B
2,2,26/4/96,19,m,160,The radio fixed Luke,Non-sensible,edin_semantics,sem_emo_sem_emo,1.12654074705097,1,2,2,1,10378.1860798443,112,B
2,2,26/4/96,19,m,161,Phil chopped the herbs,Sensible,edin_semantics,sem_emo_sem_emo,1.38518515905344,1,1,1,1,10380.3148470414,27,B
2,2,26/4/96,19,m,162,The curtains measured Rob,Non-sensible,edin_semantics,sem_emo_sem_emo,2.58498387411237,2,2,2,1,10383.6432837027,126,B
2,2,26/4/96,19,m,163,Jon jumped the fence,Sensible,edin_semantics,sem_emo_sem_emo,1.40894614697754,2,1,1,1,10385.7955697429,17,B
2,2,26/4/96,19,m,164,The poster read Luke,Non-sensible,edin_semantics,sem_emo_sem_emo,1.42053638780089,2,1,1,1,10387.9596233829,79,B
2,2,26/4/96,19,m,165,Beth took the photo,Sensible,edin_semantics,sem_emo_sem_emo,1.11522472328033,1,1,1,1,10389.817882993,53,B
2,2,26/4/96,19,m,166,The opera watched Adam,Non-sensible,edin_semantics,sem_emo_sem_emo,1.05583123367614,2,2,2,1,10391.6173613713,108,B
2,2,26/4/96,19,m,167,The hospital visited Tom,Non-sensible,edin_semantics,sem_emo_sem_emo,0.938601037598346,2,1,1,1,10393.2992253288,91,B
2,2,26/4/96,19,m,168,The monitor punched Erin,Non-sensible,edin_semantics,sem_emo_sem_emo,1.29096161346206,1,1,1,1,10395.3338956654,125,B
2,2,26/4/96,19,m,169,Ryan painted the picture,Sensible,edin_semantics,sem_emo_sem_emo,1.04443759525384,2,1,1,1,10397.1215981049,35,B
2,2,26/4/96,19,m,170,The salt passed Leo,Non-sensible,edin_semantics,sem_emo_sem_emo,1.02080329240016,2,2,2,1,10398.8857547608,118,B
2,2,26/4/96,19,m,171,The desk wiped Lucy,Non-sensible,edin_semantics,sem_emo_sem_emo,0.938071526070416,1,1,1,1,10400.5675997958,115,B
2,2,26/4/96,19,m,172,The problem solved Phil,Non-sensible,edin_semantics,sem_emo_sem_emo,1.30294313475861,2,1,1,1,10402.6140797468,109,B
2,2,26/4/96,19,m,173,Josh squeezed the ball,Sensible,edin_semantics,sem_emo_sem_emo,0.950460363930688,2,1,1,1,10404.3076676861,1,B
2,2,26/4/96,19,m,174,Jon polished the coins,Sensible,edin_semantics,sem_emo_sem_emo,1.02048417430706,1,1,1,1,10406.0718528862,29,B
2,2,26/4/96,19,m,175,Tim ate the ham,Sensible,edin_semantics,sem_emo_sem_emo,0.985517490877101,2,1,1,1,10407.8007154018,67,B
2,2,26/4/96,19,m,176,The bed sold Jay,Non-sensible,edin_semantics,sem_emo_sem_emo,1.18496309134753,2,1,1,1,10409.729566179,113,B
2,2,26/4/96,19,m,177,Mary iced the cake,Sensible,edin_semantics,sem_emo_sem_emo,1.24427511764043,2,2,1,0,10411.7172280152,44,B
2,2,26/4/96,19,m,178,The radio got Ben,Non-sensible,edin_semantics,sem_emo_sem_emo,1.16142596716963,2,2,2,1,10413.6225060681,88,B
2,2,26/4/96,19,m,179,Erin posted the card,Sensible,edin_semantics,sem_emo_sem_emo,1.12690252112952,1,2,2,1,10415.492562143,36,B
2,2,26/4/96,19,m,180,Dan carried the folder,Sensible,edin_semantics,sem_emo_sem_emo,1.0676479040194,2,2,2,1,10417.3037651445,30,B
2,2,26/4/96,19,m,181,The wallet carried Leo,Non-sensible,edin_semantics,sem_emo_sem_emo,1.06697887855262,2,2,2,1,10419.114978409,150,B
2,2,26/4/96,19,m,182,Jen weighed the flour,Sensible,edin_semantics,sem_emo_sem_emo,1.3135846807927,2,2,2,1,10421.17319485,64,B
2,2,26/4/96,19,m,183,Mary visited the museum,Sensible,edin_semantics,sem_emo_sem_emo,1.43107722722016,1,2,2,1,10423.349029881,16,B
2,2,26/4/96,19,m,184,Rob stroked the fur,Sensible,edin_semantics,sem_emo_sem_emo,1.1608810609996,2,1,1,1,10425.2543268565,41,B
2,2,26/4/96,19,m,185,The bath cleaned Jack,Non-sensible,edin_semantics,sem_emo_sem_emo,1.39712851446711,1,2,2,1,10427.3948748031,80,B
2,2,26/4/96,19,m,186,Phil typed the letter,Sensible,edin_semantics,sem_emo_sem_emo,1.15017601207001,1,1,1,1,10429.2884214976,49,B
2,2,26/4/96,19,m,187,The socks knitted Ryan,Non-sensible,edin_semantics,sem_emo_sem_emo,1.0446034083725,2,1,1,1,10431.0761248993,141,B
2,2,26/4/96,19,m,188,Joe solved the puzzle,Sensible,edin_semantics,sem_emo_sem_emo,1.03238936384332,2,2,2,1,10432.8520802651,34,B
2,2,26/4/96,19,m,189,The turnip mashed Ella,Non-sensible,edin_semantics,sem_emo_sem_emo,1.19684069881259,2,1,1,1,10434.7926380258,103,B
2,2,26/4/96,19,m,190,Eve taught the lesson,Sensible,edin_semantics,sem_emo_sem_emo,1.3619167996585,1,1,2,0,10436.8979062646,15,B
2,2,26/4/96,19,m,191,Matt drank the juice,Sensible,edin_semantics,sem_emo_sem_emo,1.11447776243949,2,2,2,1,10438.7561697234,60,B
2,2,26/4/96,19,m,192,The garage tidied Erin,Non-sensible,edin_semantics,sem_emo_sem_emo,1.37359459750769,1,1,1,1,10440.8731827908,77,B
2,2,26/4/96,19,m,193,Liz sliced the tomato,Sensible,edin_semantics,sem_emo_sem_emo,1.3028424281456,2,1,1,1,10442.9196265003,3,B
2,2,26/4/96,19,m,194,The message typed Eve,Non-sensible,edin_semantics,sem_emo_sem_emo,1.2677644542855,1,2,2,1,10444.9307975579,124,B
2,2,26/4/96,19,m,195,The stairs climbed Ben,Non-sensible,edin_semantics,sem_emo_sem_emo,1.23224901602589,2,1,1,1,10446.9066590805,143,B
2,2,26/4/96,19,m,196,The fat chewed Adam,Non-sensible,edin_semantics,sem_emo_sem_emo,1.36029394785328,2,2,2,1,10449.0119269986,106,B
2,2,26/4/96,19,m,197,Phil sniffed the milk,Sensible,edin_semantics,sem_emo_sem_emo,1.39553420689481,1,2,2,1,10451.1524771903,18,B
2,2,26/4/96,19,m,198,Jeff watered the garden,Sensible,edin_semantics,sem_emo_sem_emo,1.31386050145557,1,2,2,1,10453.2106631627,54,B
2,2,26/4/96,19,m,199,Kate built the house,Sensible,edin_semantics,sem_emo_sem_emo,1.65511480553869,2,2,2,1,10455.6099292873,46,B
2,2,26/4/96,19,m,200,Matt kicked the bike,Sensible,edin_semantics,sem_emo_sem_emo,1.31489482893994,2,1,1,1,10457.6681701031,39,B
2,2,26/4/96,19,m,201,Jane punched the wall,Sensible,edin_semantics,sem_emo_sem_emo,2.6316678041585,1,2,2,1,10461.0436094918,50,B
2,2,26/4/96,19,m,202,The nuts mixed Liam,Non-sensible,edin_semantics,sem_emo_sem_emo,1.42045652809793,1,1,1,1,10463.2076682634,83,B
2,2,26/4/96,19,m,203,The carrots chopped Fred,Non-sensible,edin_semantics,sem_emo_sem_emo,1.84299870941686,1,2,2,1,10465.7951319577,102,B
2,2,26/4/96,19,m,204,The pot scrubbed Josh,Non-sensible,edin_semantics,sem_emo_sem_emo,1.99562792177494,1,1,1,1,10468.5354759895,131,B
2,2,26/4/96,19,m,205,Tim cleaned the floor,Sensible,edin_semantics,sem_emo_sem_emo,2.1493004418262,2,1,1,1,10471.4287420525,5,B
2,2,26/4/96,19,m,206,Andy grated the cheese,Sensible,edin_semantics,sem_emo_sem_emo,1.33776677631067,2,1,1,1,10473.5104494337,65,B
2,2,26/4/96,19,m,207,The cream whisked Tom,Non-sensible,edin_semantics,sem_emo_sem_emo,1.38578522935495,1,1,1,1,10475.63924293,137,B
2,2,26/4/96,19,m,208,Carl brushed the teeth,Sensible,edin_semantics,sem_emo_sem_emo,1.26778722552626,2,2,2,1,10477.6503989137,72,B
2,2,26/4/96,19,m,209,The perfume sniffed Tim,Non-sensible,edin_semantics,sem_emo_sem_emo,1.19726854156397,2,1,1,1,10479.5910034997,93,B
2,2,26/4/96,19,m,210,The shed built Rose,Non-sensible,edin_semantics,sem_emo_sem_emo,1.0443638292636,2,1,1,1,10481.3786982419,121,B
2,2,26/4/96,19,m,211,Will licked the spoon,Sensible,edin_semantics,sem_emo_sem_emo,0.950388201546957,1,1,1,1,10483.0723102354,21,B
2,2,26/4/96,19,m,212,The sugar weighed Liz,Non-sensible,edin_semantics,sem_emo_sem_emo,1.5383118107693,2,1,1,1,10485.3539654673,139,B
2,2,26/4/96,19,m,213,Joe wore the jumper,Sensible,edin_semantics,sem_emo_sem_emo,2.78481658567398,1,1,1,1,10488.8823175863,25,B
2,2,26/4/96,19,m,214,The blanket stroked Ryan,Non-sensible,edin_semantics,sem_emo_sem_emo,1.17348606528321,2,2,2,1,10490.7994148753,116,B
2,2,26/4/96,19,m,215,The rules taught Josh,Non-sensible,edin_semantics,sem_emo_sem_emo,1.37370043566989,1,2,2,1,10492.91640004,90,B
2,2,26/4/96,19,m,216,Lara filed the papers,Sensible,edin_semantics,sem_emo_sem_emo,1.64402521129159,1,2,2,1,10495.3039537288,24,B
2,2,26/4/96,19,m,217,Leah sucked the lolly,Sensible,edin_semantics,sem_emo_sem_emo,1.1618727324967,2,2,2,1,10497.2092420448,12,B
2,2,26/4/96,19,m,218,The invite mailed Ian,Non-sensible,edin_semantics,sem_emo_sem_emo,0.949698649890706,1,1,1,1,10498.9028668671,89,B
2,2,26/4/96,19,m,219,Amy hugged the tree,Sensible,edin_semantics,sem_emo_sem_emo,1.51489367434078,2,1,1,1,10501.160985937,11,B
2,2,26/4/96,19,m,220,The plants watered Luke,Non-sensible,edin_semantics,sem_emo_sem_emo,1.23270796878023,1,1,1,1,10503.1368695894,129,B
2,2,26/4/96,19,m,221,The report filed Ian,Non-sensible,edin_semantics,sem_emo_sem_emo,1.45637800003169,2,1,1,1,10505.3362087103,99,B
2,2,26/4/96,19,m,222,The rope pulled Emma,Non-sensible,edin_semantics,sem_emo_sem_emo,1.15020583918704,1,2,2,1,10507.2297788175,120,B
2,2,26/4/96,19,m,223,The ribbon cut Lucy,Non-sensible,edin_semantics,sem_emo_sem_emo,1.77385912876525,2,1,1,1,10509.7466548727,95,B
2,2,26/4/96,19,m,224,Liz labeled the jar,Sensible,edin_semantics,sem_emo_sem_emo,1.50200643495918,1,1,2,0,10511.9930541301,61,B
2,2,26/4/96,19,m,225,Luke swallowed the pill,Sensible,edin_semantics,sem_emo_sem_emo,0.950260554309352,2,2,2,1,10513.6866632371,22,B
2,2,26/4/96,19,m,226,The hotline dialed Hugh,Non-sensible,edin_semantics,sem_emo_sem_emo,0.902660322362863,1,2,2,1,10515.3331913605,138,B
2,2,26/4/96,19,m,227,Lily dented the lorry,Sensible,edin_semantics,sem_emo_sem_emo,0.985228520627061,1,1,1,1,10517.0621359809,71,B
2,2,26/4/96,19,m,228,Max lent the bucket,Sensible,edin_semantics,sem_emo_sem_emo,1.05636619747202,2,1,1,1,10518.8616246222,19,B
2,2,26/4/96,19,m,229,The house dusted Alex,Non-sensible,edin_semantics,sem_emo_sem_emo,1.14977735499451,1,2,2,1,10520.7551443761,122,B
2,2,26/4/96,19,m,230,Erin crushed the garlic,Sensible,edin_semantics,sem_emo_sem_emo,0.809027866866018,2,2,2,1,10522.3075980895,6,B
2,2,26/4/96,19,m,231,Leo stored the wine,Sensible,edin_semantics,sem_emo_sem_emo,0.797451096355871,2,2,2,1,10523.8483598934,52,B
2,2,26/4/96,19,m,232,Hugh pulled the lever,Sensible,edin_semantics,sem_emo_sem_emo,1.35011616540032,1,1,1,1,10525.9418143483,45,B
2,2,26/4/96,19,m,233,Jon trimmed the bushes,Sensible,edin_semantics,sem_emo_sem_emo,1.1857270504388,2,2,2,1,10527.8706574282,32,B
2,2,26/4/96,19,m,234,Mike paid the bill,Sensible,edin_semantics,sem_emo_sem_emo,0.97365848526897,1,1,1,1,10529.5878030179,59,B
2,2,26/4/96,19,m,235,The trousers ironed Eve,Non-sensible,edin_semantics,sem_emo_sem_emo,0.891441477268017,2,2,2,1,10531.2225943307,130,B
2,2,26/4/96,19,m,236,Ben chewed the toffee,Sensible,edin_semantics,sem_emo_sem_emo,0.962142010437674,1,1,1,1,10532.9279646231,31,B
2,2,26/4/96,19,m,237,Amy measured the thread,Sensible,edin_semantics,sem_emo_sem_emo,1.40783067690245,2,1,1,1,10535.0802602849,51,B
2,2,26/4/96,19,m,238,Beth wiped the table,Sensible,edin_semantics,sem_emo_sem_emo,1.14891493434152,1,2,2,1,10536.9738172425,40,B
2,2,26/4/96,19,m,239,Max kissed the mirror,Sensible,edin_semantics,sem_emo_sem_emo,1.31375209751968,1,1,1,1,10539.0320038564,23,B
2,2,26/4/96,19,m,240,Tom knitted the scarf,Sensible,edin_semantics,sem_emo_sem_emo,1.30317758232377,1,2,2,1,10541.0784475659,66,B
2,2,26/4/96,19,m,241,Ian cancelled the plans,Sensible,edin_semantics,sem_emo_sem_emo,0.962142331160067,1,1,1,1,10542.7838290836,7,B
2,2,26/4/96,19,m,242,Tom dialed the number,Sensible,edin_semantics,sem_emo_sem_emo,1.00828295864449,1,1,1,1,10544.536246363,63,B
2,2,26/4/96,19,m,243,The box labeled Ian,Non-sensible,edin_semantics,sem_emo_sem_emo,1.12655806602197,1,2,2,1,10546.4062604235,136,B
2,2,26/4/96,19,m,244,Bill counted the sheets,Sensible,edin_semantics,sem_emo_sem_emo,1.08012205385057,1,2,2,1,10548.229741293,48,B
2,2,26/4/96,19,m,245,The hair trimmed Bill,Non-sensible,edin_semantics,sem_emo_sem_emo,2.20830489600849,1,1,1,1,10551.1813578587,107,B
2,2,26/4/96,19,m,246,The rice stored Fred,Non-sensible,edin_semantics,sem_emo_sem_emo,1.13870732476971,2,1,1,1,10553.0631180307,127,B
2,2,26/4/96,19,m,247,The car lent Fred,Non-sensible,edin_semantics,sem_emo_sem_emo,0.997504785167621,2,2,2,1,10554.803736921,94,B
2,2,26/4/96,19,m,248,The candy sucked Sam,Non-sensible,edin_semantics,sem_emo_sem_emo,1.2088902131145,2,1,1,1,10556.7561408584,87,B
2,2,26/4/96,19,m,249,Jen searched the room,Sensible,edin_semantics,sem_emo_sem_emo,1.04397800105653,1,2,2,1,10558.5437967933,10,B
2,2,26/4/96,19,m,250,The report wrote Alex,Non-sensible,edin_semantics,sem_emo_sem_emo,0.891370277051465,1,1,1,1,10560.1786246684,149,B
2,2,26/4/96,19,m,251,The portrait painted Jay,Non-sensible,edin_semantics,sem_emo_sem_emo,1.19739747168751,2,2,2,1,10562.1192266887,110,B
2,2,26/4/96,19,m,252,Carl sold the sofa,Sensible,edin_semantics,sem_emo_sem_emo,1.14921192263682,1,2,2,1,10564.0128490735,38,B
2,2,26/4/96,19,m,253,Ella watched the movie,Sensible,edin_semantics,sem_emo_sem_emo,0.878100095958871,1,1,1,1,10565.6357922852,33,B
2,2,26/4/96,19,m,254,The onion sliced Liam,Non-sensible,edin_semantics,sem_emo_sem_emo,0.936851500720877,1,2,2,1,10567.3176591293,78,B
2,2,26/4/96,19,m,255,Jack mixed the fruits,Sensible,edin_semantics,sem_emo_sem_emo,1.38423903003422,1,2,1,0,10569.4464112525,8,B
2,2,26/4/96,19,m,256,Matt pushed the trolley,Sensible,edin_semantics,sem_emo_sem_emo,0.85545489883043,1,2,2,1,10571.0459738522,26,B
2,2,26/4/96,19,m,257,The pillow hugged Kate,Non-sensible,edin_semantics,sem_emo_sem_emo,1.27944096924693,2,2,2,1,10573.0688849276,86,B
2,2,26/4/96,19,m,258,The steak ate Mike,Non-sensible,edin_semantics,sem_emo_sem_emo,1.15043034437804,2,2,2,1,10574.962436433,142,B
2,2,26/4/96,19,m,259,Kate lifted the box,Sensible,edin_semantics,sem_emo_sem_emo,1.26794341699497,1,1,1,1,10576.9735728526,69,B
2,2,26/4/96,19,m,260,The rope pulled Andy,Non-sensible,edin_semantics,sem_emo_sem_emo,1.59754975034957,1,2,2,1,10579.3144887953,148,B
2,2,26/4/96,19,m,261,Sam tidied the room,Sensible,edin_semantics,sem_emo_sem_emo,1.20742900504411,1,2,2,1,10581.2664456467,2,B
2,2,26/4/96,19,m,262,The pan washed Beth,Non-sensible,edin_semantics,sem_emo_sem_emo,1.38306326428028,2,2,2,1,10583.3951897518,132,B
2,2,26/4/96,19,m,263,Sean read the book,Sensible,edin_semantics,sem_emo_sem_emo,1.11534371103153,2,2,2,1,10585.2534564178,4,B
2,2,26/4/96,19,m,264,The beer drank Jack,Non-sensible,edin_semantics,sem_emo_sem_emo,1.31494229575037,1,1,1,1,10587.3116548983,135,B
2,2,26/4/96,19,m,265,The dress wore Kate,Non-sensible,edin_semantics,sem_emo_sem_emo,1.64405439696748,1,2,2,1,10589.6991832501,100,B
2,2,26/4/96,19,m,266,The kettle carried John,Non-sensible,edin_semantics,sem_emo_sem_emo,1.2202678154481,2,1,1,1,10591.6633037927,105,B
2,2,26/4/96,19,m,267,The hedge jumped Sara,Non-sensible,edin_semantics,sem_emo_sem_emo,1.83242162844545,2,2,2,1,10594.239014961,92,B
2,2,26/4/96,19,m,268,The debt paid Zoe,Non-sensible,edin_semantics,sem_emo_sem_emo,2.09117765159863,1,2,2,1,10597.0734407794,134,B
2,2,26/4/96,19,m,269,Luke climbed the hill,Sensible,edin_semantics,sem_emo_sem_emo,1.19568417636037,2,2,2,1,10599.0140302915,68,B
2,2,26/4/96,19,m,270,The gum swallowed Owen,Non-sensible,edin_semantics,sem_emo_sem_emo,1.30248225767537,1,1,1,1,10601.0604849056,97,B
2,2,26/4/96,19,m,271,Jon cut the paper,Sensible,edin_semantics,sem_emo_sem_emo,1.31467737962703,2,2,2,1,10603.1186670293,20,B
2,2,26/4/96,19,m,272,Ewan wrote the story,Sensible,edin_semantics,sem_emo_sem_emo,1.9146229210819,1,2,2,1,10605.7767456241,74,B
2,2,26/4/96,19,m,273,The office entered Joe,Non-sensible,edin_semantics,sem_emo_sem_emo,1.37330691014176,1,1,1,1,10607.8937250158,133,B
2,2,26/4/96,19,m,274,The trophy polished Anna,Non-sensible,edin_semantics,sem_emo_sem_emo,1.39718335787802,1,2,2,1,10610.0342748867,104,B
2,2,26/4/96,19,m,275,The carrots grated Tom,Non-sensible,edin_semantics,sem_emo_sem_emo,1.36193796729094,2,2,2,1,10612.1395703869,140,B
2,2,26/4/96,19,m,276,The rose kissed Hugh,Non-sensible,edin_semantics,sem_emo_sem_emo,1.58515064939638,2,2,2,1,10614.4682427786,98,B
2,2,26/4/96,19,m,277,The door kicked Max,Non-sensible,edin_semantics,sem_emo_sem_emo,2.16179223135077,2,2,2,1,10617.3732308991,114,B
2,2,26/4/96,19,m,278,Mark washed the dishes,Sensible,edin_semantics,sem_emo_sem_emo,1.70269066263791,1,1,1,1,10619.8195876289,57,B
2,2,26/4/96,19,m,279,The donut iced Joe,Non-sensible,edin_semantics,sem_emo_sem_emo,1.53789391039209,2,1,1,1,10622.1012585761,119,B
2,2,26/4/96,19,m,280,Matt offered the money,Sensible,edin_semantics,sem_emo_sem_emo,1.50306225079839,2,1,1,1,10624.3476090839,9,B
2,2,26/4/96,19,m,281,Josh ironed the shirt,Sensible,edin_semantics,sem_emo_sem_emo,2.03217223525098,2,1,1,1,10627.1232703479,55,B
2,2,26/4/96,19,m,282,The party cancelled Phil,Non-sensible,edin_semantics,sem_emo_sem_emo,1.91425088391043,1,2,2,1,10629.7813005137,82,B
2,2,26/4/96,19,m,283,The ticket took Tim,Non-sensible,edin_semantics,sem_emo_sem_emo,1.58514231063418,2,2,2,1,10632.1099998461,128,B
2,2,26/4/96,19,m,284,Kate served the dish,Sensible,edin_semantics,sem_emo_sem_emo,2.72611393061015,1,2,2,1,10635.5795864486,70,B
2,2,26/4/96,19,m,285,The bowl dented Ian,Non-sensible,edin_semantics,sem_emo_sem_emo,1.09153878423422,2,2,2,1,10637.4143098967,146,B
2,2,26/4/96,19,m,286,Lily got the kettle,Sensible,edin_semantics,sem_emo_sem_emo,1.23269513990999,1,1,1,1,10639.390169495,13,B
2,2,26/4/96,19,m,287,The plate licked Jane,Non-sensible,edin_semantics,sem_emo_sem_emo,1.47945071918548,1,2,2,1,10641.6130521545,96,B
2,2,26/4/96,19,m,288,The internet searched Max,Non-sensible,edin_semantics,sem_emo_sem_emo,1.12666807356618,2,1,1,1,10643.4834680792,85,B
2,2,26/4/96,19,m,289,Jen fixed the laptop,Sensible,edin_semantics,sem_emo_sem_emo,1.29049977421346,2,1,1,1,10645.5177404002,37,B
2,2,26/4/96,19,m,290,Ryan entered the room,Sensible,edin_semantics,sem_emo_sem_emo,1.23246165451201,1,2,2,1,10647.4936205246,58,B
2,2,26/4/96,19,m,291,John described the pen,Sensible,edin_semantics,sem_emo_sem_emo,1.15009935958187,2,2,2,1,10649.3871880661,42,B
2,2,26/4/96,19,m,292,The gift posted Jack,Non-sensible,edin_semantics,sem_emo_sem_emo,1.15028634033479,2,1,1,1,10651.2807414957,111,B
2,2,26/4/96,19,m,293,Rob mailed the parcel,Sensible,edin_semantics,sem_emo_sem_emo,1.33812790894444,1,2,2,1,10653.3624690824,14,B
2,2,26/4/96,19,m,294,Will mashed the potatoes,Sensible,edin_semantics,sem_emo_sem_emo,1.20879111010618,2,2,2,1,10655.3148287603,28,B
2,2,26/4/96,19,m,295,The dessert served Fred,Non-sensible,edin_semantics,sem_emo_sem_emo,1.31490509203468,1,1,1,1,10657.3729999795,145,B
2,2,26/4/96,19,m,296,The lemon squeezed Jay,Non-sensible,edin_semantics,sem_emo_sem_emo,1.07961531356159,2,2,2,1,10659.1960045773,76,B
2,2,26/4/96,19,m,297,The ice crushed Josh,Non-sensible,edin_semantics,sem_emo_sem_emo,1.25580602495029,1,1,1,1,10661.1954298441,81,B
2,2,26/4/96,19,m,298,Dan whisked the eggs,Sensible,edin_semantics,sem_emo_sem_emo,1.10304948607518,1,2,2,1,10663.0419205713,62,B
2,2,26/4/96,19,m,299,The hair brushed Dan,Non-sensible,edin_semantics,sem_emo_sem_emo,1.17342929754159,1,1,1,1,10664.9589819395,147,B
2,2,26/4/96,19,m,300,The sweets offered Tom,Non-sensible,edin_semantics,sem_emo_sem_emo,1.50279893828338,2,2,2,1,10667.2053808763,84,B
