subject_column,AssignedList_column,subject_dob_column,subject_age_column,subject_gender_column,trialnum_column,Stim_column,Type_column,Experiment_column,OrderGroup_column,ReactionTime_column,StimSide_column,StimPosition_column,Response_column,Valid_column,TrialEndSecs_column,PairID_column,List_column
20,4,19/7/94,21,m,1,The gum swallowed Owen,Non-sensible,edin_semantics,sem_emo_sem_emo,1.55581583909225,1,2,2,1,537180.861266055,97,B
20,4,19/7/94,21,m,2,Ben chewed the toffee,Sensible,edin_semantics,sem_emo_sem_emo,1.6563463768689,1,2,2,1,537183.260520955,31,B
20,4,19/7/94,21,m,3,Carl brushed the teeth,Sensible,edin_semantics,sem_emo_sem_emo,2.14998165471479,2,1,1,1,537186.153775472,72,B
20,4,19/7/94,21,m,4,The car lent Fred,Non-sensible,edin_semantics,sem_emo_sem_emo,1.78549427061807,2,1,1,1,537188.682435163,94,B
20,4,19/7/94,21,m,5,Ian cancelled the plans,Sensible,edin_semantics,sem_emo_sem_emo,3.1142032246571,1,2,2,1,537192.540150829,7,B
20,4,19/7/94,21,m,6,Joe solved the puzzle,Sensible,edin_semantics,sem_emo_sem_emo,1.75012828863692,1,1,1,1,537195.033468272,34,B
20,4,19/7/94,21,m,7,Bill counted the sheets,Sensible,edin_semantics,sem_emo_sem_emo,1.76249627966899,2,1,1,1,537197.53860463,48,B
20,4,19/7/94,21,m,8,Jon cut the paper,Sensible,edin_semantics,sem_emo_sem_emo,1.62162215902936,1,1,1,1,537199.902594574,20,B
20,4,19/7/94,21,m,9,Jeff watered the garden,Sensible,edin_semantics,sem_emo_sem_emo,3.12685794080608,1,1,1,1,537203.772065653,54,B
20,4,19/7/94,21,m,10,The rope pulled Emma,Non-sensible,edin_semantics,sem_emo_sem_emo,2.00968579528853,2,1,1,1,537206.524146816,120,B
20,4,19/7/94,21,m,11,The ribbon cut Lucy,Non-sensible,edin_semantics,sem_emo_sem_emo,2.06772904656827,2,2,2,1,537209.335130123,95,B
20,4,19/7/94,21,m,12,Erin crushed the garlic,Sensible,edin_semantics,sem_emo_sem_emo,1.91544332716148,2,1,1,1,537211.993071449,6,B
20,4,19/7/94,21,m,13,The steak ate Mike,Non-sensible,edin_semantics,sem_emo_sem_emo,1.77420358383097,1,1,1,1,537214.510015818,142,B
20,4,19/7/94,21,m,14,Kate built the house,Sensible,edin_semantics,sem_emo_sem_emo,1.78604783629999,1,1,1,1,537217.038668774,46,B
20,4,19/7/94,21,m,15,The onion sliced Liam,Non-sensible,edin_semantics,sem_emo_sem_emo,1.79743794677779,2,1,1,1,537219.579068483,78,B
20,4,19/7/94,21,m,16,The ticket took Tim,Non-sensible,edin_semantics,sem_emo_sem_emo,1.75020686548669,2,1,1,1,537222.072403245,128,B
20,4,19/7/94,21,m,17,The socks knitted Ryan,Non-sensible,edin_semantics,sem_emo_sem_emo,1.9387344578281,2,2,2,1,537224.754017681,141,B
20,4,19/7/94,21,m,18,Luke swallowed the pill,Sensible,edin_semantics,sem_emo_sem_emo,1.43305864592548,2,1,1,1,537226.92982513,22,B
20,4,19/7/94,21,m,19,The debt paid Zoe,Non-sensible,edin_semantics,sem_emo_sem_emo,1.57213159347884,2,1,1,1,537229.246719979,134,B
20,4,19/7/94,21,m,20,The nuts mixed Liam,Non-sensible,edin_semantics,sem_emo_sem_emo,1.66770281165373,1,2,2,1,537231.657823942,83,B
20,4,19/7/94,21,m,21,Liz sliced the tomato,Sensible,edin_semantics,sem_emo_sem_emo,1.57365053135436,1,2,2,1,537233.974759844,3,B
20,4,19/7/94,21,m,22,The rose kissed Hugh,Non-sensible,edin_semantics,sem_emo_sem_emo,1.69193077029195,2,1,1,1,537236.409315618,98,B
20,4,19/7/94,21,m,23,The hair brushed Dan,Non-sensible,edin_semantics,sem_emo_sem_emo,1.46832969423849,1,2,2,1,537238.620451525,147,B
20,4,19/7/94,21,m,24,The kettle carried John,Non-sensible,edin_semantics,sem_emo_sem_emo,1.62114428367931,1,2,2,1,537240.984430244,105,B
20,4,19/7/94,21,m,25,The ice crushed Josh,Non-sensible,edin_semantics,sem_emo_sem_emo,1.73932349530514,2,2,2,1,537243.466036855,81,B
20,4,19/7/94,21,m,26,The turnip mashed Ella,Non-sensible,edin_semantics,sem_emo_sem_emo,2.27994001226034,1,2,2,1,537246.488684938,103,B
20,4,19/7/94,21,m,27,Sam tidied the room,Sensible,edin_semantics,sem_emo_sem_emo,1.72674671455752,1,1,1,1,537248.958523307,2,B
20,4,19/7/94,21,m,28,Mike paid the bill,Sensible,edin_semantics,sem_emo_sem_emo,1.4557849856792,2,2,2,1,537251.157824263,59,B
20,4,19/7/94,21,m,29,Jane punched the wall,Sensible,edin_semantics,sem_emo_sem_emo,1.80882100132294,1,1,1,1,537253.710040963,50,B
20,4,19/7/94,21,m,30,The dessert served Fred,Non-sensible,edin_semantics,sem_emo_sem_emo,2.1970565445954,2,2,2,1,537256.65034407,145,B
20,4,19/7/94,21,m,31,Beth took the photo,Sensible,edin_semantics,sem_emo_sem_emo,1.91538303147536,1,2,2,1,537259.308382896,53,B
20,4,19/7/94,21,m,32,The radio fixed Luke,Non-sensible,edin_semantics,sem_emo_sem_emo,2.10218834830448,2,1,1,1,537262.154561881,112,B
20,4,19/7/94,21,m,33,Jack mixed the fruits,Sensible,edin_semantics,sem_emo_sem_emo,1.84469340287615,1,1,1,1,537264.742058931,8,B
20,4,19/7/94,21,m,34,Rob mailed the parcel,Sensible,edin_semantics,sem_emo_sem_emo,1.78578708949499,1,1,1,1,537267.270699379,14,B
20,4,19/7/94,21,m,35,Jon trimmed the bushes,Sensible,edin_semantics,sem_emo_sem_emo,2.12677711888682,1,1,1,1,537270.140432808,32,B
20,4,19/7/94,21,m,36,Andy grated the cheese,Sensible,edin_semantics,sem_emo_sem_emo,1.36254220700357,1,2,2,1,537272.245713554,65,B
20,4,19/7/94,21,m,37,Leah sucked the lolly,Sensible,edin_semantics,sem_emo_sem_emo,1.27883159799967,1,1,1,1,537274.268601217,12,B
20,4,19/7/94,21,m,38,The hair trimmed Bill,Non-sensible,edin_semantics,sem_emo_sem_emo,1.49154096504208,1,2,2,1,537276.503204651,107,B
20,4,19/7/94,21,m,39,Matt pushed the trolley,Sensible,edin_semantics,sem_emo_sem_emo,1.40964050951879,1,1,1,1,537278.655501275,26,B
20,4,19/7/94,21,m,40,The carrots grated Tom,Non-sensible,edin_semantics,sem_emo_sem_emo,1.40909335832112,2,1,1,1,537280.807793409,140,B
20,4,19/7/94,21,m,41,Joe wore the jumper,Sensible,edin_semantics,sem_emo_sem_emo,1.75090026587714,2,2,2,1,537283.301246196,25,B
20,4,19/7/94,21,m,42,The blanket stroked Ryan,Non-sensible,edin_semantics,sem_emo_sem_emo,1.64418845868204,2,1,1,1,537285.6887088,116,B
20,4,19/7/94,21,m,43,Phil passed the towels,Sensible,edin_semantics,sem_emo_sem_emo,1.82122651673853,1,2,2,1,537288.252644671,43,B
20,4,19/7/94,21,m,44,Jen searched the room,Sensible,edin_semantics,sem_emo_sem_emo,1.47949754458386,1,1,1,1,537290.475512898,10,B
20,4,19/7/94,21,m,45,Rob stroked the fur,Sensible,edin_semantics,sem_emo_sem_emo,1.57434938393999,2,2,2,1,537292.792516793,41,B
20,4,19/7/94,21,m,46,Matt offered the money,Sensible,edin_semantics,sem_emo_sem_emo,1.27906059334055,2,2,2,1,537294.815375912,9,B
20,4,19/7/94,21,m,47,Dan whisked the eggs,Sensible,edin_semantics,sem_emo_sem_emo,1.79730324365664,1,1,1,1,537297.355937585,62,B
20,4,19/7/94,21,m,48,The fat chewed Adam,Non-sensible,edin_semantics,sem_emo_sem_emo,1.86845856020227,1,1,1,1,537299.966774194,106,B
20,4,19/7/94,21,m,49,Liz labeled the jar,Sensible,edin_semantics,sem_emo_sem_emo,2.69177105091512,1,2,2,1,537303.401033943,61,B
20,4,19/7/94,21,m,50,The rope pulled Andy,Non-sensible,edin_semantics,sem_emo_sem_emo,1.88014533824753,2,1,1,1,537306.023801078,148,B
20,4,19/7/94,21,m,51,The dress wore Kate,Non-sensible,edin_semantics,sem_emo_sem_emo,1.37423796521034,2,1,1,1,537308.140839162,100,B
20,4,19/7/94,21,m,52,The invite mailed Ian,Non-sensible,edin_semantics,sem_emo_sem_emo,1.63321528630331,1,2,2,1,537310.516547636,89,B
20,4,19/7/94,21,m,53,Phil chopped the herbs,Sensible,edin_semantics,sem_emo_sem_emo,1.28045156330336,1,2,2,1,537312.539524139,27,B
20,4,19/7/94,21,m,54,Luke climbed the hill,Sensible,edin_semantics,sem_emo_sem_emo,1.1621803046437,1,1,1,1,537314.444788721,68,B
20,4,19/7/94,21,m,55,Kate lifted the box,Sensible,edin_semantics,sem_emo_sem_emo,1.63196671684273,1,2,2,1,537316.820561019,69,B
20,4,19/7/94,21,m,56,The hedge jumped Sara,Non-sensible,edin_semantics,sem_emo_sem_emo,1.59743717696983,1,1,1,1,537319.16104078,92,B
20,4,19/7/94,21,m,57,Kate served the dish,Sensible,edin_semantics,sem_emo_sem_emo,1.5739779882133,1,1,1,1,537321.47797123,70,B
20,4,19/7/94,21,m,58,The cream whisked Tom,Non-sensible,edin_semantics,sem_emo_sem_emo,1.72712420392782,1,2,2,1,537323.947859311,137,B
20,4,19/7/94,21,m,59,The lemon squeezed Jay,Non-sensible,edin_semantics,sem_emo_sem_emo,1.6098019607598,2,1,1,1,537326.300092881,76,B
20,4,19/7/94,21,m,60,The sweets offered Tom,Non-sensible,edin_semantics,sem_emo_sem_emo,1.71505608782172,2,1,1,1,537328.75820374,84,B
20,4,19/7/94,21,m,61,The desk wiped Lucy,Non-sensible,edin_semantics,sem_emo_sem_emo,1.92727859935258,1,2,2,1,537331.427967189,115,B
20,4,19/7/94,21,m,62,Jake dusted the shelf,Sensible,edin_semantics,sem_emo_sem_emo,1.93853689322714,2,2,2,1,537334.109498558,47,B
20,4,19/7/94,21,m,63,Tom dialed the number,Sensible,edin_semantics,sem_emo_sem_emo,1.75015009776689,1,2,2,1,537336.602875655,63,B
20,4,19/7/94,21,m,64,The wallet carried Leo,Non-sensible,edin_semantics,sem_emo_sem_emo,1.73847229999956,1,1,1,1,537339.08448451,150,B
20,4,19/7/94,21,m,65,The office entered Joe,Non-sensible,edin_semantics,sem_emo_sem_emo,1.76208639726974,2,2,2,1,537341.589607719,133,B
20,4,19/7/94,21,m,66,Mary visited the museum,Sensible,edin_semantics,sem_emo_sem_emo,2.12708725687116,1,1,1,1,537344.459374182,16,B
20,4,19/7/94,21,m,67,Amy measured the thread,Sensible,edin_semantics,sem_emo_sem_emo,2.31518893083557,2,2,2,1,537347.51725579,51,B
20,4,19/7/94,21,m,68,Sean read the book,Sensible,edin_semantics,sem_emo_sem_emo,1.78615752304904,2,1,1,1,537350.045902973,4,B
20,4,19/7/94,21,m,69,The report filed Ian,Non-sensible,edin_semantics,sem_emo_sem_emo,1.40974763047416,1,2,2,1,537352.198207935,99,B
20,4,19/7/94,21,m,70,The radio got Ben,Non-sensible,edin_semantics,sem_emo_sem_emo,1.80906442913692,1,1,1,1,537354.75035985,88,B
20,4,19/7/94,21,m,71,The hospital visited Tom,Non-sensible,edin_semantics,sem_emo_sem_emo,1.87939132156316,2,2,2,1,537357.373123778,91,B
20,4,19/7/94,21,m,72,The pan washed Beth,Non-sensible,edin_semantics,sem_emo_sem_emo,2.13855145405978,1,1,1,1,537360.25462609,132,B
20,4,19/7/94,21,m,73,Mark washed the dishes,Sensible,edin_semantics,sem_emo_sem_emo,1.72715980408248,2,2,2,1,537362.724472156,57,B
20,4,19/7/94,21,m,74,The shed built Rose,Non-sensible,edin_semantics,sem_emo_sem_emo,1.50311452848837,1,2,2,1,537364.970853453,121,B
20,4,19/7/94,21,m,75,Ryan entered the room,Sensible,edin_semantics,sem_emo_sem_emo,1.78627266222611,1,1,1,1,537367.49952437,58,B
20,4,19/7/94,21,m,76,The plate licked Jane,Non-sensible,edin_semantics,sem_emo_sem_emo,1.91544845874887,1,1,1,1,537370.157536896,96,B
20,4,19/7/94,21,m,77,The house dusted Alex,Non-sensible,edin_semantics,sem_emo_sem_emo,2.0682178264251,2,1,1,1,537372.968472095,122,B
20,4,19/7/94,21,m,78,Hugh pulled the lever,Sensible,edin_semantics,sem_emo_sem_emo,1.49210639751982,1,2,2,1,537375.203114015,45,B
20,4,19/7/94,21,m,79,The opera watched Adam,Non-sensible,edin_semantics,sem_emo_sem_emo,1.76154598116409,2,1,1,1,537377.708256146,108,B
20,4,19/7/94,21,m,80,Jen weighed the flour,Sensible,edin_semantics,sem_emo_sem_emo,1.43275139457546,1,1,1,1,537379.884044673,64,B
20,4,19/7/94,21,m,81,The garage tidied Erin,Non-sensible,edin_semantics,sem_emo_sem_emo,1.43238096090499,1,2,2,1,537382.059846669,77,B
20,4,19/7/94,21,m,82,Max kissed the mirror,Sensible,edin_semantics,sem_emo_sem_emo,1.92696140566841,2,2,2,1,537384.72964668,23,B
20,4,19/7/94,21,m,83,The hotline dialed Hugh,Non-sensible,edin_semantics,sem_emo_sem_emo,2.9502916643396,1,1,1,1,537388.422666301,138,B
20,4,19/7/94,21,m,84,Eve taught the lesson,Sensible,edin_semantics,sem_emo_sem_emo,2.65616837632842,1,2,2,1,537391.821634154,15,B
20,4,19/7/94,21,m,85,Amy hugged the tree,Sensible,edin_semantics,sem_emo_sem_emo,1.65599037578795,1,2,2,1,537394.220989439,11,B
20,4,19/7/94,21,m,86,The carrots chopped Fred,Non-sensible,edin_semantics,sem_emo_sem_emo,3.25573193829041,1,1,1,1,537398.219741832,102,B
20,4,19/7/94,21,m,87,The portrait painted Jay,Non-sensible,edin_semantics,sem_emo_sem_emo,2.53859212156385,1,1,1,1,537401.501084039,110,B
20,4,19/7/94,21,m,88,The candy sucked Sam,Non-sensible,edin_semantics,sem_emo_sem_emo,4.29013415146619,2,2,2,1,537406.534915047,87,B
20,4,19/7/94,21,m,89,The poster read Luke,Non-sensible,edin_semantics,sem_emo_sem_emo,2.62026582693215,1,2,2,1,537409.898567272,79,B
20,4,19/7/94,21,m,90,The sugar weighed Liz,Non-sensible,edin_semantics,sem_emo_sem_emo,1.56274663493969,1,2,2,1,537412.20377823,139,B
20,4,19/7/94,21,m,91,Mary iced the cake,Sensible,edin_semantics,sem_emo_sem_emo,2.18493486777879,2,1,1,1,537415.132327529,44,B
20,4,19/7/94,21,m,92,The message typed Eve,Non-sensible,edin_semantics,sem_emo_sem_emo,1.62106634839438,2,1,1,1,537417.496331265,124,B
20,4,19/7/94,21,m,93,Beth wiped the table,Sensible,edin_semantics,sem_emo_sem_emo,2.51511529297568,1,1,1,1,537420.754205624,40,B
20,4,19/7/94,21,m,94,Lara filed the papers,Sensible,edin_semantics,sem_emo_sem_emo,2.70347226143349,1,1,1,1,537424.200183581,24,B
20,4,19/7/94,21,m,95,The beer drank Jack,Non-sensible,edin_semantics,sem_emo_sem_emo,1.7142414546106,1,2,2,1,537426.658288347,135,B
20,4,19/7/94,21,m,96,The bowl dented Ian,Non-sensible,edin_semantics,sem_emo_sem_emo,1.95039493672084,2,1,1,1,537429.351578336,146,B
20,4,19/7/94,21,m,97,The bath cleaned Jack,Non-sensible,edin_semantics,sem_emo_sem_emo,1.38559504144359,1,1,1,1,537431.480346174,80,B
20,4,19/7/94,21,m,98,The pot scrubbed Josh,Non-sensible,edin_semantics,sem_emo_sem_emo,1.7155294730328,1,2,2,1,537433.938491671,131,B
20,4,19/7/94,21,m,99,The rules taught Josh,Non-sensible,edin_semantics,sem_emo_sem_emo,2.4095644983463,2,1,1,1,537437.090453141,90,B
20,4,19/7/94,21,m,100,The bed sold Jay,Non-sensible,edin_semantics,sem_emo_sem_emo,1.59762191283517,2,2,2,1,537439.430919753,113,B
20,4,19/7/94,21,m,101,The church described Erin,Non-sensible,edin_semantics,sem_emo_sem_emo,2.05604258936364,2,2,2,1,537442.23005079,117,B
20,4,19/7/94,21,m,102,Ryan painted the picture,Sensible,edin_semantics,sem_emo_sem_emo,6.94836989988107,2,2,2,1,537449.921893041,35,B
20,4,19/7/94,21,m,103,Ella watched the movie,Sensible,edin_semantics,sem_emo_sem_emo,2.11482766980771,1,2,2,1,537452.779871378,33,B
20,4,19/7/94,21,m,104,Jon jumped the fence,Sensible,edin_semantics,sem_emo_sem_emo,2.06870981364045,2,2,2,1,537455.591305299,17,B
20,4,19/7/94,21,m,105,Tim pulled the handle,Sensible,edin_semantics,sem_emo_sem_emo,1.59748047438916,1,2,2,1,537457.931281206,73,B
20,4,19/7/94,21,m,106,The internet searched Max,Non-sensible,edin_semantics,sem_emo_sem_emo,1.49170132598374,2,2,2,1,537460.165895224,85,B
20,4,19/7/94,21,m,107,Tim cleaned the floor,Sensible,edin_semantics,sem_emo_sem_emo,1.64425613090862,1,2,2,1,537462.553448271,5,B
20,4,19/7/94,21,m,108,The party cancelled Phil,Non-sensible,edin_semantics,sem_emo_sem_emo,1.7970610987395,1,1,1,1,537465.093829699,82,B
20,4,19/7/94,21,m,109,Matt drank the juice,Sensible,edin_semantics,sem_emo_sem_emo,1.77379787084647,2,1,1,1,537467.610704472,60,B
20,4,19/7/94,21,m,110,John described the pen,Sensible,edin_semantics,sem_emo_sem_emo,1.66711845668033,2,1,1,1,537470.021791436,42,B
20,4,19/7/94,21,m,111,Ryan carried the gun,Sensible,edin_semantics,sem_emo_sem_emo,1.32734749035444,1,2,1,0,537472.091732179,75,B
20,4,19/7/94,21,m,112,Erin posted the card,Sensible,edin_semantics,sem_emo_sem_emo,1.185893825721,1,1,1,1,537474.020554412,36,B
20,4,19/7/94,21,m,113,The problem solved Phil,Non-sensible,edin_semantics,sem_emo_sem_emo,1.60929008887615,2,2,2,1,537476.372794397,109,B
20,4,19/7/94,21,m,114,Carl sold the sofa,Sensible,edin_semantics,sem_emo_sem_emo,1.50341312028468,1,1,1,1,537478.619182429,38,B
20,4,19/7/94,21,m,115,Phil sniffed the milk,Sensible,edin_semantics,sem_emo_sem_emo,1.45643284334801,2,1,1,1,537480.818547528,18,B
20,4,19/7/94,21,m,116,The donut iced Joe,Non-sensible,edin_semantics,sem_emo_sem_emo,1.7743658691179,2,2,2,1,537483.335421018,119,B
20,4,19/7/94,21,m,117,Josh squeezed the ball,Sensible,edin_semantics,sem_emo_sem_emo,1.656729639275,2,2,2,1,537485.734686822,1,B
20,4,19/7/94,21,m,118,Will mashed the potatoes,Sensible,edin_semantics,sem_emo_sem_emo,2.04451392707415,2,1,1,1,537488.522133325,28,B
20,4,19/7/94,21,m,119,Jon polished the coins,Sensible,edin_semantics,sem_emo_sem_emo,1.49069618422072,1,2,2,1,537490.756768832,29,B
20,4,19/7/94,21,m,120,The perfume sniffed Tim,Non-sensible,edin_semantics,sem_emo_sem_emo,1.43301983852871,1,2,2,1,537492.932579488,93,B
20,4,19/7/94,21,m,121,Tim ate the ham,Sensible,edin_semantics,sem_emo_sem_emo,1.64464195910841,2,2,2,1,537495.320037922,67,B
20,4,19/7/94,21,m,122,Matt kicked the bike,Sensible,edin_semantics,sem_emo_sem_emo,1.40944839722943,1,2,2,1,537497.472375919,39,B
20,4,19/7/94,21,m,123,Jen fixed the laptop,Sensible,edin_semantics,sem_emo_sem_emo,1.38630576070864,1,2,2,1,537499.601183527,37,B
20,4,19/7/94,21,m,124,Leo stored the wine,Sensible,edin_semantics,sem_emo_sem_emo,3.00878039794043,1,1,1,1,537503.353001699,52,B
20,4,19/7/94,21,m,125,Ewan wrote the story,Sensible,edin_semantics,sem_emo_sem_emo,1.58567374642007,2,1,1,1,537505.681681467,74,B
20,4,19/7/94,21,m,126,Will licked the spoon,Sensible,edin_semantics,sem_emo_sem_emo,1.72715338971466,2,2,2,1,537508.151547739,21,B
20,4,19/7/94,21,m,127,The gift posted Jack,Non-sensible,edin_semantics,sem_emo_sem_emo,1.89130100107286,1,2,2,1,537510.786023782,111,B
20,4,19/7/94,21,m,128,Lily got the kettle,Sensible,edin_semantics,sem_emo_sem_emo,1.80955545406323,2,2,2,1,537513.338220277,13,B
20,4,19/7/94,21,m,129,The crate lifted Amy,Non-sensible,edin_semantics,sem_emo_sem_emo,1.71507885900792,1,1,1,1,537515.796305158,144,B
20,4,19/7/94,21,m,130,The shoes counted Lucy,Non-sensible,edin_semantics,sem_emo_sem_emo,2.37330402364023,2,2,2,1,537518.913028614,123,B
20,4,19/7/94,21,m,131,The box labeled Ian,Non-sensible,edin_semantics,sem_emo_sem_emo,2.78520465898328,1,1,1,1,537522.441369507,136,B
20,4,19/7/94,21,m,132,The rice stored Fred,Non-sensible,edin_semantics,sem_emo_sem_emo,3.0321866676677,2,2,2,1,537526.216700428,127,B
20,4,19/7/94,21,m,133,Lily dented the lorry,Sensible,edin_semantics,sem_emo_sem_emo,1.56200801301748,1,2,2,1,537528.521910744,71,B
20,4,19/7/94,21,m,134,The plants watered Luke,Non-sensible,edin_semantics,sem_emo_sem_emo,1.65657729655504,1,2,2,1,537530.921188736,129,B
20,4,19/7/94,21,m,135,Tom knitted the scarf,Sensible,edin_semantics,sem_emo_sem_emo,1.9256502953358,2,1,1,1,537533.590977842,66,B
20,4,19/7/94,21,m,136,Max lent the bucket,Sensible,edin_semantics,sem_emo_sem_emo,1.16150775121059,2,2,2,1,537535.496278987,19,B
20,4,19/7/94,21,m,137,The button pushed Ian,Non-sensible,edin_semantics,sem_emo_sem_emo,1.3622198816156,1,2,2,1,537537.601543377,101,B
20,4,19/7/94,21,m,138,Josh ironed the shirt,Sensible,edin_semantics,sem_emo_sem_emo,1.40957379934844,1,2,2,1,537539.753881053,55,B
20,4,19/7/94,21,m,139,The stairs climbed Ben,Non-sensible,edin_semantics,sem_emo_sem_emo,1.55018332449254,2,2,2,1,537542.047272775,143,B
20,4,19/7/94,21,m,140,The door kicked Max,Non-sensible,edin_semantics,sem_emo_sem_emo,1.38617073686328,1,1,1,1,537544.176063064,114,B
20,4,19/7/94,21,m,141,Phil typed the letter,Sensible,edin_semantics,sem_emo_sem_emo,1.53827043774072,2,2,2,1,537546.457715089,49,B
20,4,19/7/94,21,m,142,The trophy polished Anna,Non-sensible,edin_semantics,sem_emo_sem_emo,1.31503594643436,1,1,1,1,537548.515926398,104,B
20,4,19/7/94,21,m,143,The report wrote Alex,Non-sensible,edin_semantics,sem_emo_sem_emo,1.91510528651997,2,2,2,1,537551.173991523,149,B
20,4,19/7/94,21,m,144,Dan carried the folder,Sensible,edin_semantics,sem_emo_sem_emo,1.33875940996222,1,1,1,1,537553.255646626,30,B
20,4,19/7/94,21,m,145,The trousers ironed Eve,Non-sensible,edin_semantics,sem_emo_sem_emo,2.02090207464062,2,1,1,1,537556.019570759,130,B
20,4,19/7/94,21,m,146,The monitor punched Erin,Non-sensible,edin_semantics,sem_emo_sem_emo,1.4446113621816,2,2,2,1,537558.207183653,125,B
20,4,19/7/94,21,m,147,The curtains measured Rob,Non-sensible,edin_semantics,sem_emo_sem_emo,1.40889835951384,1,1,1,1,537560.359478353,126,B
20,4,19/7/94,21,m,148,The salt passed Leo,Non-sensible,edin_semantics,sem_emo_sem_emo,1.25667165277991,2,1,1,1,537562.358894318,118,B
20,4,19/7/94,21,m,149,Liz scrubbed the bowl,Sensible,edin_semantics,sem_emo_sem_emo,1.44436504796613,1,1,1,1,537564.546418372,56,B
20,4,19/7/94,21,m,150,The pillow hugged Kate,Non-sensible,edin_semantics,sem_emo_sem_emo,1.97406034951564,2,1,1,1,537567.263243882,86,B
20,4,19/7/94,21,m,151,Amy lifted the crate,Sensible,edin_semantics,sem_emo_sem_emo,1.43752437480725,1,1,1,1,537604.064015731,144,A
20,4,19/7/94,21,m,152,The laptop fixed Jen,Non-sensible,edin_semantics,sem_emo_sem_emo,1.90233511058614,2,2,2,1,537606.71029305,37,A
20,4,19/7/94,21,m,153,Erin tidied the garage,Sensible,edin_semantics,sem_emo_sem_emo,2.29074993706308,2,2,2,1,537609.744656456,77,A
20,4,19/7/94,21,m,154,The tree hugged Amy,Non-sensible,edin_semantics,sem_emo_sem_emo,1.45611244242173,1,2,2,1,537611.943993973,11,A
20,4,19/7/94,21,m,155,The gun carried Ryan,Non-sensible,edin_semantics,sem_emo_sem_emo,1.6326071980875,1,2,2,1,537614.319749273,75,A
20,4,19/7/94,21,m,156,Adam chewed the fat,Sensible,edin_semantics,sem_emo_sem_emo,2.05567343859002,2,1,1,1,537617.118919758,106,A
20,4,19/7/94,21,m,157,Eve ironed the trousers,Sensible,edin_semantics,sem_emo_sem_emo,1.63167518086266,2,1,1,1,537619.494727656,130,A
20,4,19/7/94,21,m,158,Jack posted the gift,Sensible,edin_semantics,sem_emo_sem_emo,1.47909984958824,1,2,2,1,537621.717533021,111,A
20,4,19/7/94,21,m,159,Max searched the internet,Sensible,edin_semantics,sem_emo_sem_emo,1.39699894294608,2,2,2,1,537623.858095721,85,A
20,4,19/7/94,21,m,160,Joe entered the office,Sensible,edin_semantics,sem_emo_sem_emo,1.65634028322529,2,2,2,1,537626.257380769,133,A
20,4,19/7/94,21,m,161,Eve typed the message,Sensible,edin_semantics,sem_emo_sem_emo,1.29106328217313,1,1,1,1,537628.29203539,124,A
20,4,19/7/94,21,m,162,The herbs chopped Phil,Non-sensible,edin_semantics,sem_emo_sem_emo,1.19747829355765,1,2,2,1,537630.232609828,27,A
20,4,19/7/94,21,m,163,Rose built the shed,Sensible,edin_semantics,sem_emo_sem_emo,1.12672419985756,1,2,2,1,537632.10266462,121,A
20,4,19/7/94,21,m,164,Fred lent the car,Sensible,edin_semantics,sem_emo_sem_emo,1.33859006885905,1,1,1,1,537634.184414657,94,A
20,4,19/7/94,21,m,165,The room tidied Sam,Non-sensible,edin_semantics,sem_emo_sem_emo,1.36216792464256,1,1,1,1,537636.289697328,2,A
20,4,19/7/94,21,m,166,The tomato sliced Liz,Non-sensible,edin_semantics,sem_emo_sem_emo,1.30336488375906,1,2,2,1,537638.336098061,3,A
20,4,19/7/94,21,m,167,Jay squeezed the lemon,Sensible,edin_semantics,sem_emo_sem_emo,1.75007312453818,2,1,1,1,537640.829513324,76,A
20,4,19/7/94,21,m,168,The wine stored Leo,Non-sensible,edin_semantics,sem_emo_sem_emo,1.49042004276998,1,1,1,1,537643.064113872,52,A
20,4,19/7/94,21,m,169,The handle pulled Tim,Non-sensible,edin_semantics,sem_emo_sem_emo,1.26779107423499,2,2,2,1,537645.075261837,73,A
20,4,19/7/94,21,m,170,The kettle got Lily,Non-sensible,edin_semantics,sem_emo_sem_emo,1.35021847567987,1,2,2,1,537647.168765683,13,A
20,4,19/7/94,21,m,171,Ian dented the bowl,Sensible,edin_semantics,sem_emo_sem_emo,1.69135443342384,2,1,1,1,537649.603352889,146,A
20,4,19/7/94,21,m,172,Sara jumped the hedge,Sensible,edin_semantics,sem_emo_sem_emo,1.26734462962486,1,1,1,1,537651.61448546,92,A
20,4,19/7/94,21,m,173,The picture painted Ryan,Non-sensible,edin_semantics,sem_emo_sem_emo,1.69101992063224,2,2,2,1,537654.049054705,35,A
20,4,19/7/94,21,m,174,The eggs whisked Dan,Non-sensible,edin_semantics,sem_emo_sem_emo,1.24365099321585,2,1,1,1,537656.036697298,62,A
20,4,19/7/94,21,m,175,The flour weighed Jen,Non-sensible,edin_semantics,sem_emo_sem_emo,1.30328470328823,1,1,1,1,537658.083134913,64,A
20,4,19/7/94,21,m,176,Fred stored the rice,Sensible,edin_semantics,sem_emo_sem_emo,1.42074389476329,2,2,2,1,537660.247205552,127,A
20,4,19/7/94,21,m,177,Liz weighed the sugar,Sensible,edin_semantics,sem_emo_sem_emo,1.54999345727265,2,2,2,1,537662.540636081,139,A
20,4,19/7/94,21,m,178,The bill paid Mike,Non-sensible,edin_semantics,sem_emo_sem_emo,1.24414009379689,1,2,2,1,537664.528276749,59,A
20,4,19/7/94,21,m,179,The jar labeled Liz,Non-sensible,edin_semantics,sem_emo_sem_emo,1.17359960079193,1,2,2,1,537666.445328817,61,A
20,4,19/7/94,21,m,180,Lucy counted the shoes,Sensible,edin_semantics,sem_emo_sem_emo,1.18561543920077,1,2,2,1,537668.374161633,123,A
20,4,19/7/94,21,m,181,Erin punched the monitor,Sensible,edin_semantics,sem_emo_sem_emo,1.63277301122434,2,2,2,1,537670.749975304,125,A
20,4,19/7/94,21,m,182,Zoe paid the debt,Sensible,edin_semantics,sem_emo_sem_emo,1.46759588294663,1,1,1,1,537672.961069196,134,A
20,4,19/7/94,21,m,183,The thread measured Amy,Non-sensible,edin_semantics,sem_emo_sem_emo,2.49071350321174,1,2,2,1,537676.195386867,51,A
20,4,19/7/94,21,m,184,The toffee chewed Ben,Non-sensible,edin_semantics,sem_emo_sem_emo,1.86743930657394,2,2,2,1,537678.806340219,31,A
20,4,19/7/94,21,m,185,Ian labeled the box,Sensible,edin_semantics,sem_emo_sem_emo,1.72660912491847,2,1,1,1,537681.27623696,136,A
20,4,19/7/94,21,m,186,Rob measured the curtains,Sensible,edin_semantics,sem_emo_sem_emo,1.420667562983,1,1,1,1,537683.440294127,126,A
20,4,19/7/94,21,m,187,Lucy cut the ribbon,Sensible,edin_semantics,sem_emo_sem_emo,2.21971424983349,2,2,2,1,537686.404070215,95,A
20,4,19/7/94,21,m,188,Adam watched the opera,Sensible,edin_semantics,sem_emo_sem_emo,2.02067949378397,2,1,1,1,537689.167973501,108,A
20,4,19/7/94,21,m,189,Ryan stroked the blanket,Sensible,edin_semantics,sem_emo_sem_emo,0.974011599901132,1,1,1,1,537690.885080604,116,A
20,4,19/7/94,21,m,190,The room searched Jen,Non-sensible,edin_semantics,sem_emo_sem_emo,1.05638447857928,1,1,1,1,537692.684541022,10,A
20,4,19/7/94,21,m,191,Ryan knitted the socks,Sensible,edin_semantics,sem_emo_sem_emo,1.456018150202,2,2,2,1,537694.883888481,141,A
20,4,19/7/94,21,m,192,The cheese grated Andy,Non-sensible,edin_semantics,sem_emo_sem_emo,2.33825042459648,2,2,2,1,537697.965289573,65,A
20,4,19/7/94,21,m,193,Jack cleaned the bath,Sensible,edin_semantics,sem_emo_sem_emo,1.409129920532,2,1,1,1,537700.117607686,80,A
20,4,19/7/94,21,m,194,The hill climbed Luke,Non-sensible,edin_semantics,sem_emo_sem_emo,1.31457282439806,1,1,1,1,537702.175817391,68,A
20,4,19/7/94,21,m,195,The photo took Beth,Non-sensible,edin_semantics,sem_emo_sem_emo,1.67971159424633,1,2,2,1,537704.598610377,53,A
20,4,19/7/94,21,m,196,The papers filed Lara,Non-sensible,edin_semantics,sem_emo_sem_emo,1.59639322792646,1,1,1,1,537706.939194693,24,A
20,4,19/7/94,21,m,197,Ben climbed the stairs,Sensible,edin_semantics,sem_emo_sem_emo,2.38478906766977,2,2,2,1,537710.067578949,143,A
20,4,19/7/94,21,m,198,Tim took the ticket,Sensible,edin_semantics,sem_emo_sem_emo,3.0793465487659,2,1,1,1,537713.889978024,128,A
20,4,19/7/94,21,m,199,Jane licked the plate,Sensible,edin_semantics,sem_emo_sem_emo,2.37346791243181,2,1,1,1,537717.006693141,96,A
20,4,19/7/94,21,m,200,Ben got the radio,Sensible,edin_semantics,sem_emo_sem_emo,2.75000352796633,2,1,1,1,537720.499766194,88,A
20,4,19/7/94,21,m,201,The fruits mixed Jack,Non-sensible,edin_semantics,sem_emo_sem_emo,1.51503158465493,1,1,1,1,537722.757908035,8,A
20,4,19/7/94,21,m,202,The fur stroked Rob,Non-sensible,edin_semantics,sem_emo_sem_emo,2.43243227642961,1,2,2,1,537725.933467245,41,A
20,4,19/7/94,21,m,203,Hugh kissed the rose,Sensible,edin_semantics,sem_emo_sem_emo,2.00785351230297,2,1,1,1,537728.685552899,98,A
20,4,19/7/94,21,m,204,The sheets counted Bill,Non-sensible,edin_semantics,sem_emo_sem_emo,2.79646295285784,2,1,1,1,537732.225660751,48,A
20,4,19/7/94,21,m,205,The trolley pushed Matt,Non-sensible,edin_semantics,sem_emo_sem_emo,4.67796045378782,2,1,1,1,537737.647562451,26,A
20,4,19/7/94,21,m,206,Jack drank the beer,Sensible,edin_semantics,sem_emo_sem_emo,2.76049465546384,2,2,2,1,537741.152385785,135,A
20,4,19/7/94,21,m,207,Ella mashed the turnip,Sensible,edin_semantics,sem_emo_sem_emo,1.97270979045425,2,2,2,1,537743.869239197,103,A
20,4,19/7/94,21,m,208,Anna polished the trophy,Sensible,edin_semantics,sem_emo_sem_emo,1.11520836653654,1,1,1,1,537745.727507466,104,A
20,4,19/7/94,21,m,209,The potatoes mashed Will,Non-sensible,edin_semantics,sem_emo_sem_emo,1.03247660014313,2,1,1,1,537747.503449683,28,A
20,4,19/7/94,21,m,210,Josh scrubbed the pot,Sensible,edin_semantics,sem_emo_sem_emo,1.04440584382974,1,2,2,1,537749.291127427,131,A
20,4,19/7/94,21,m,211,Luke read the poster,Sensible,edin_semantics,sem_emo_sem_emo,1.16118382231798,1,2,2,1,537751.196480528,79,A
20,4,19/7/94,21,m,212,The money offered Matt,Non-sensible,edin_semantics,sem_emo_sem_emo,1.60855788132176,2,2,2,1,537753.548686196,9,A
20,4,19/7/94,21,m,213,The coins polished Jon,Non-sensible,edin_semantics,sem_emo_sem_emo,2.32638275949284,2,2,2,1,537756.618381908,29,A
20,4,19/7/94,21,m,214,The book read Sean,Non-sensible,edin_semantics,sem_emo_sem_emo,3.16146894381382,1,1,1,1,537760.523057324,4,A
20,4,19/7/94,21,m,215,The towels passed Phil,Non-sensible,edin_semantics,sem_emo_sem_emo,1.93845446780324,2,2,2,1,537763.204643537,43,A
20,4,19/7/94,21,m,216,Max kicked the door,Sensible,edin_semantics,sem_emo_sem_emo,2.64361789473332,2,1,1,1,537766.591836735,114,A
20,4,19/7/94,21,m,217,The fence jumped Jon,Non-sensible,edin_semantics,sem_emo_sem_emo,1.30317918583751,1,2,2,1,537768.638288783,17,A
20,4,19/7/94,21,m,218,The folder carried Dan,Non-sensible,edin_semantics,sem_emo_sem_emo,1.50296090263873,1,1,1,1,537770.884659817,30,A
20,4,19/7/94,21,m,219,Dan brushed the hair,Sensible,edin_semantics,sem_emo_sem_emo,1.25605682935566,1,2,2,1,537772.884074179,147,A
20,4,19/7/94,21,m,220,Lucy wiped the desk,Sensible,edin_semantics,sem_emo_sem_emo,1.76183046132792,2,2,2,1,537775.38922978,115,A
20,4,19/7/94,21,m,221,The floor cleaned Tim,Non-sensible,edin_semantics,sem_emo_sem_emo,1.05643130396493,1,2,2,1,537777.188649146,5,A
20,4,19/7/94,21,m,222,Kate wore the dress,Sensible,edin_semantics,sem_emo_sem_emo,0.973295428208075,1,1,1,1,537778.905804678,100,A
20,4,19/7/94,21,m,223,Kate hugged the pillow,Sensible,edin_semantics,sem_emo_sem_emo,1.33843451889697,2,1,1,1,537780.987530982,86,A
20,4,19/7/94,21,m,224,Bill trimmed the hair,Sensible,edin_semantics,sem_emo_sem_emo,1.30338188202586,2,2,2,1,537783.03396507,107,A
20,4,19/7/94,21,m,225,John carried the kettle,Sensible,edin_semantics,sem_emo_sem_emo,1.56191724876408,1,2,2,1,537785.339256849,105,A
20,4,19/7/94,21,m,226,The dish served Kate,Non-sensible,edin_semantics,sem_emo_sem_emo,1.40907154907472,1,1,1,1,537787.491502799,70,A
20,4,19/7/94,21,m,227,Jay sold the bed,Sensible,edin_semantics,sem_emo_sem_emo,1.27947849361226,2,2,2,1,537789.514523882,113,A
20,4,19/7/94,21,m,228,Tom whisked the cream,Sensible,edin_semantics,sem_emo_sem_emo,1.06729286513291,1,2,2,1,537791.325584804,137,A
20,4,19/7/94,21,m,229,Tim sniffed the perfume,Sensible,edin_semantics,sem_emo_sem_emo,1.06708054721821,2,2,2,1,537793.136844573,93,A
20,4,19/7/94,21,m,230,Liam sliced the onion,Sensible,edin_semantics,sem_emo_sem_emo,1.79662812454626,2,1,1,1,537795.677275072,78,A
20,4,19/7/94,21,m,231,Alex wrote the report,Sensible,edin_semantics,sem_emo_sem_emo,1.29139683279209,2,2,2,1,537797.711974594,149,A
20,4,19/7/94,21,m,232,The parcel mailed Rob,Non-sensible,edin_semantics,sem_emo_sem_emo,2.36127920483705,2,1,1,1,537800.816898057,14,A
20,4,19/7/94,21,m,233,The teeth brushed Carl,Non-sensible,edin_semantics,sem_emo_sem_emo,1.38519221486058,2,1,1,1,537802.945691553,72,A
20,4,19/7/94,21,m,234,Luke fixed the radio,Sensible,edin_semantics,sem_emo_sem_emo,1.71495281544048,2,1,1,1,537805.403799847,112,A
20,4,19/7/94,21,m,235,Josh taught the rules,Sensible,edin_semantics,sem_emo_sem_emo,1.27976842608768,2,1,1,1,537807.426697452,90,A
20,4,19/7/94,21,m,236,Alex dusted the house,Sensible,edin_semantics,sem_emo_sem_emo,1.17366310372017,1,1,1,1,537809.34374984,122,A
20,4,19/7/94,21,m,237,The shelf dusted Jake,Non-sensible,edin_semantics,sem_emo_sem_emo,1.06786888127681,1,2,2,1,537811.154990045,47,A
20,4,19/7/94,21,m,238,The table wiped Beth,Non-sensible,edin_semantics,sem_emo_sem_emo,2.59684801124968,2,1,1,1,537814.495144915,40,A
20,4,19/7/94,21,m,239,The pen described John,Non-sensible,edin_semantics,sem_emo_sem_emo,1.20875486859586,2,1,1,1,537816.447507479,42,A
20,4,19/7/94,21,m,240,The bushes trimmed Jon,Non-sensible,edin_semantics,sem_emo_sem_emo,1.56175271840766,1,1,1,1,537818.752718758,32,A
20,4,19/7/94,21,m,241,The garden watered Jeff,Non-sensible,edin_semantics,sem_emo_sem_emo,1.36191134736873,2,1,1,1,537820.857954283,54,A
20,4,19/7/94,21,m,242,Phil cancelled the party,Sensible,edin_semantics,sem_emo_sem_emo,1.27982904249802,1,1,1,1,537822.880884602,82,A
20,4,19/7/94,21,m,243,The shirt ironed Josh,Non-sensible,edin_semantics,sem_emo_sem_emo,1.18551601551007,2,2,2,1,537824.80971357,55,A
20,4,19/7/94,21,m,244,The bowl scrubbed Liz,Non-sensible,edin_semantics,sem_emo_sem_emo,1.59714050940238,1,1,1,1,537827.150216102,56,A
20,4,19/7/94,21,m,245,Joe iced the donut,Sensible,edin_semantics,sem_emo_sem_emo,1.06787240924314,1,2,2,1,537828.961397295,119,A
20,4,19/7/94,21,m,246,The lolly sucked Leah,Non-sensible,edin_semantics,sem_emo_sem_emo,1.47979485359974,1,1,1,1,537831.184287651,12,A
20,4,19/7/94,21,m,247,The ball squeezed Josh,Non-sensible,edin_semantics,sem_emo_sem_emo,1.12641149619594,1,2,2,1,537833.054288562,1,A
20,4,19/7/94,21,m,248,Leo carried the wallet,Sensible,edin_semantics,sem_emo_sem_emo,1.37385470280424,1,1,1,1,537835.171336909,150,A
20,4,19/7/94,21,m,249,The lever pulled Hugh,Non-sensible,edin_semantics,sem_emo_sem_emo,0.926100588520058,1,2,2,1,537836.841401515,45,A
20,4,19/7/94,21,m,250,Josh crushed the ice,Sensible,edin_semantics,sem_emo_sem_emo,1.05599319806788,1,2,2,1,537838.64086514,81,A
20,4,19/7/94,21,m,251,Ian mailed the invite,Sensible,edin_semantics,sem_emo_sem_emo,1.04412553296424,1,2,2,1,537840.42857207,89,A
20,4,19/7/94,21,m,252,The puzzle solved Joe,Non-sensible,edin_semantics,sem_emo_sem_emo,1.75016420951579,2,1,1,1,537842.921956223,34,A
20,4,19/7/94,21,m,253,Sam sucked the candy,Sensible,edin_semantics,sem_emo_sem_emo,11.8162485952489,2,2,2,1,537855.48286416,87,A
20,4,19/7/94,21,m,254,The pill swallowed Luke,Non-sensible,edin_semantics,sem_emo_sem_emo,1.74940121255349,2,1,1,1,537857.976249596,22,A
20,4,19/7/94,21,m,255,The room entered Ryan,Non-sensible,edin_semantics,sem_emo_sem_emo,1.29047860659193,2,1,1,1,537860.010946232,58,A
20,4,19/7/94,21,m,256,Fred chopped the carrots,Sensible,edin_semantics,sem_emo_sem_emo,1.17369357217103,2,1,1,1,537861.928071423,102,A
20,4,19/7/94,21,m,257,Luke watered the plants,Sensible,edin_semantics,sem_emo_sem_emo,1.78514949476812,2,2,2,1,537864.456700325,129,A
20,4,19/7/94,21,m,258,The movie watched Ella,Non-sensible,edin_semantics,sem_emo_sem_emo,1.43250796676148,1,2,2,1,537866.632494945,33,A
20,4,19/7/94,21,m,259,The bike kicked Matt,Non-sensible,edin_semantics,sem_emo_sem_emo,1.51500849262811,2,2,2,1,537868.890639673,39,A
20,4,19/7/94,21,m,260,The scarf knitted Tom,Non-sensible,edin_semantics,sem_emo_sem_emo,1.46756445232313,2,1,1,1,537871.101732603,66,A
20,4,19/7/94,21,m,261,The bucket lent Max,Non-sensible,edin_semantics,sem_emo_sem_emo,1.0437073118519,1,2,2,1,537872.889477698,19,A
20,4,19/7/94,21,m,262,Mike ate the steak,Sensible,edin_semantics,sem_emo_sem_emo,1.72621752368286,2,1,1,1,537875.359293617,142,A
20,4,19/7/94,21,m,263,The cake iced Mary,Non-sensible,edin_semantics,sem_emo_sem_emo,1.18528092652559,2,1,1,1,537877.288113284,44,A
20,4,19/7/94,21,m,264,Fred served the dessert,Sensible,edin_semantics,sem_emo_sem_emo,1.33821257948875,2,2,2,1,537879.369859473,145,A
20,4,19/7/94,21,m,265,The box lifted Kate,Non-sensible,edin_semantics,sem_emo_sem_emo,1.47951165633276,2,2,2,1,537881.592721927,69,A
20,4,19/7/94,21,m,266,The plans cancelled Ian,Non-sensible,edin_semantics,sem_emo_sem_emo,1.13843503198586,2,2,2,1,537883.474507756,7,A
20,4,19/7/94,21,m,267,The letter typed Phil,Non-sensible,edin_semantics,sem_emo_sem_emo,1.15040693164337,2,2,2,1,537885.368070487,49,A
20,4,19/7/94,21,m,268,The number dialed Tom,Non-sensible,edin_semantics,sem_emo_sem_emo,1.25581564661115,1,2,2,1,537887.367493829,63,A
20,4,19/7/94,21,m,269,Emma pulled the rope,Sensible,edin_semantics,sem_emo_sem_emo,1.54915156273637,1,1,1,1,537889.660908002,120,A
20,4,19/7/94,21,m,270,Erin described the church,Sensible,edin_semantics,sem_emo_sem_emo,1.83228628395591,2,2,2,1,537892.236605379,117,A
20,4,19/7/94,21,m,271,The lesson taught Eve,Non-sensible,edin_semantics,sem_emo_sem_emo,1.70250560622662,2,2,2,1,537894.682926188,15,A
20,4,19/7/94,21,m,272,The lorry dented Lily,Non-sensible,edin_semantics,sem_emo_sem_emo,1.16170916438568,1,2,2,1,537896.588238237,71,A
20,4,19/7/94,21,m,273,Owen swallowed the gum,Sensible,edin_semantics,sem_emo_sem_emo,1.0674766387092,2,2,2,1,537898.39948197,97,A
20,4,19/7/94,21,m,274,Tom visited the hospital,Sensible,edin_semantics,sem_emo_sem_emo,0.962206154712476,1,2,2,1,537900.104834302,91,A
20,4,19/7/94,21,m,275,Tom offered the sweets,Sensible,edin_semantics,sem_emo_sem_emo,1.03135343280155,1,1,1,1,537901.880771708,84,A
20,4,19/7/94,21,m,276,The dishes washed Mark,Non-sensible,edin_semantics,sem_emo_sem_emo,0.879642125917599,1,2,2,1,537903.504014474,57,A
20,4,19/7/94,21,m,277,The ham ate Tim,Non-sensible,edin_semantics,sem_emo_sem_emo,0.950366713106632,1,2,2,1,537905.197412546,67,A
20,4,19/7/94,21,m,278,The mirror kissed Max,Non-sensible,edin_semantics,sem_emo_sem_emo,0.914417017716914,1,2,2,1,537906.855798392,23,A
20,4,19/7/94,21,m,279,Ian pushed the button,Sensible,edin_semantics,sem_emo_sem_emo,1.11489021056332,1,2,2,1,537908.714011818,101,A
20,4,19/7/94,21,m,280,The garlic crushed Erin,Non-sensible,edin_semantics,sem_emo_sem_emo,2.22027326771058,2,1,1,1,537911.677847239,6,A
20,4,19/7/94,21,m,281,Ian filed the report,Sensible,edin_semantics,sem_emo_sem_emo,1.9379570283927,2,2,2,1,537914.359389513,99,A
20,4,19/7/94,21,m,282,The card posted Erin,Non-sensible,edin_semantics,sem_emo_sem_emo,1.16221365961246,1,1,1,1,537916.26470509,36,A
20,4,19/7/94,21,m,283,The spoon licked Will,Non-sensible,edin_semantics,sem_emo_sem_emo,1.69066937174648,2,2,2,1,537918.699271128,21,A
20,4,19/7/94,21,m,284,The paper cut Jon,Non-sensible,edin_semantics,sem_emo_sem_emo,2.23194721690379,1,1,1,1,537921.674842718,20,A
20,4,19/7/94,21,m,285,The sofa sold Carl,Non-sensible,edin_semantics,sem_emo_sem_emo,2.34973963815719,2,1,1,1,537924.76803803,38,A
20,4,19/7/94,21,m,286,The museum visited Mary,Non-sensible,edin_semantics,sem_emo_sem_emo,1.50178898568265,2,1,1,1,537927.014488603,16,A
20,4,19/7/94,21,m,287,The jumper wore Joe,Non-sensible,edin_semantics,sem_emo_sem_emo,1.23254408000503,1,2,2,1,537928.990326392,25,A
20,4,19/7/94,21,m,288,Phil solved the problem,Sensible,edin_semantics,sem_emo_sem_emo,0.996903111226857,1,2,2,1,537930.730964526,109,A
20,4,19/7/94,21,m,289,Andy pulled the rope,Sensible,edin_semantics,sem_emo_sem_emo,1.19695551716723,2,1,1,1,537932.671591883,148,A
20,4,19/7/94,21,m,290,Liam mixed the nuts,Sensible,edin_semantics,sem_emo_sem_emo,0.8794551450992,1,2,2,1,537934.294592183,83,A
20,4,19/7/94,21,m,291,The milk sniffed Phil,Non-sensible,edin_semantics,sem_emo_sem_emo,1.53813894186169,1,1,1,1,537936.576274676,18,A
20,4,19/7/94,21,m,292,Hugh dialed the hotline,Sensible,edin_semantics,sem_emo_sem_emo,4.73729300615378,2,1,1,1,537942.056992246,138,A
20,4,19/7/94,21,m,293,The house built Kate,Non-sensible,edin_semantics,sem_emo_sem_emo,2.57291800307576,2,1,1,1,537945.373635008,46,A
20,4,19/7/94,21,m,294,The juice drank Matt,Non-sensible,edin_semantics,sem_emo_sem_emo,1.74897304910701,1,1,1,1,537947.867011785,60,A
20,4,19/7/94,21,m,295,The story wrote Ewan,Non-sensible,edin_semantics,sem_emo_sem_emo,1.77329754515085,1,1,1,1,537950.383926006,74,A
20,4,19/7/94,21,m,296,The wall punched Jane,Non-sensible,edin_semantics,sem_emo_sem_emo,3.38459823827725,1,1,1,1,537954.512087039,50,A
20,4,19/7/94,21,m,297,Beth washed the pan,Sensible,edin_semantics,sem_emo_sem_emo,1.25564983347431,1,1,1,1,537956.511475102,132,A
20,4,19/7/94,21,m,298,Jay painted the portrait,Sensible,edin_semantics,sem_emo_sem_emo,1.30271927104332,1,1,1,1,537958.557956015,110,A
20,4,19/7/94,21,m,299,Tom grated the carrots,Sensible,edin_semantics,sem_emo_sem_emo,1.39682190446183,2,1,1,1,537960.698455533,140,A
20,4,19/7/94,21,m,300,Leo passed the salt,Sensible,edin_semantics,sem_emo_sem_emo,1.38509824348148,2,1,1,1,537962.82724069,118,A
