subject_column,AssignedList_column,subject_dob_column,subject_age_column,subject_gender_column,trialnum_column,Stim_column,Type_column,Experiment_column,OrderGroup_column,ReactionTime_column,StimSide_column,StimPosition_column,Response_column,Valid_column,TrialEndSecs_column,PairID_column,List_column
22,2,13/1/95,21,f,1,The sofa sold Carl,Non-sensible,edin_semantics,sem_emo_sem_emo,2.3653209398035,2,2,2,1,602168.223224228,38,A
22,2,13/1/95,21,f,2,The herbs chopped Phil,Non-sensible,edin_semantics,sem_emo_sem_emo,0.839636904536746,2,1,1,1,602169.810983949,27,A
22,2,13/1/95,21,f,3,Owen swallowed the gum,Sensible,edin_semantics,sem_emo_sem_emo,0.935454116202891,1,1,2,0,602171.492831229,97,A
22,2,13/1/95,21,f,4,The cake iced Mary,Non-sensible,edin_semantics,sem_emo_sem_emo,0.77205731428694,2,2,2,1,602173.010010045,44,A
22,2,13/1/95,21,f,5,The potatoes mashed Will,Non-sensible,edin_semantics,sem_emo_sem_emo,0.879939434933476,2,2,2,1,602174.633044662,28,A
22,2,13/1/95,21,f,6,Beth washed the pan,Sensible,edin_semantics,sem_emo_sem_emo,0.738778909784742,2,2,2,1,602176.114958845,132,A
22,2,13/1/95,21,f,7,Josh scrubbed the pot,Sensible,edin_semantics,sem_emo_sem_emo,0.774382867384702,2,1,1,1,602177.632157546,131,A
22,2,13/1/95,21,f,8,Rose built the shed,Sensible,edin_semantics,sem_emo_sem_emo,0.726877248147503,2,1,1,1,602179.102345502,121,A
22,2,13/1/95,21,f,9,The room tidied Sam,Non-sensible,edin_semantics,sem_emo_sem_emo,1.02072343265172,2,2,1,0,602180.866461105,2,A
22,2,13/1/95,21,f,10,The plans cancelled Ian,Non-sensible,edin_semantics,sem_emo_sem_emo,0.926954670459963,2,1,1,1,602182.536559387,7,A
22,2,13/1/95,21,f,11,The book read Sean,Non-sensible,edin_semantics,sem_emo_sem_emo,0.985474514192902,2,2,2,1,602184.265411961,4,A
22,2,13/1/95,21,f,12,Emma pulled the rope,Sensible,edin_semantics,sem_emo_sem_emo,1.77345950948074,2,2,1,0,602186.782395778,120,A
22,2,13/1/95,21,f,13,Ian dented the bowl,Sensible,edin_semantics,sem_emo_sem_emo,1.45620448957197,1,2,2,1,602188.981672358,146,A
22,2,13/1/95,21,f,14,The room searched Jen,Non-sensible,edin_semantics,sem_emo_sem_emo,1.31500644003972,2,2,2,1,602191.039865707,10,A
22,2,13/1/95,21,f,15,The juice drank Matt,Non-sensible,edin_semantics,sem_emo_sem_emo,1.19749753689393,1,2,2,1,602192.980477349,60,A
22,2,13/1/95,21,f,16,The ball squeezed Josh,Non-sensible,edin_semantics,sem_emo_sem_emo,3.46745604835451,2,1,1,1,602197.190956418,1,A
22,2,13/1/95,21,f,17,The bike kicked Matt,Non-sensible,edin_semantics,sem_emo_sem_emo,1.16154591715895,2,1,1,1,602199.096259487,39,A
22,2,13/1/95,21,f,18,Kate hugged the pillow,Sensible,edin_semantics,sem_emo_sem_emo,1.70243568893056,2,2,2,1,602201.542638988,86,A
22,2,13/1/95,21,f,19,The handle pulled Tim,Non-sensible,edin_semantics,sem_emo_sem_emo,0.962099995929748,2,1,1,1,602203.247963417,73,A
22,2,13/1/95,21,f,20,Josh crushed the ice,Sensible,edin_semantics,sem_emo_sem_emo,1.10298983182292,2,1,1,1,602205.094458955,81,A
22,2,13/1/95,21,f,21,Luke watered the plants,Sensible,edin_semantics,sem_emo_sem_emo,0.785401902743615,1,1,2,0,602206.623410824,129,A
22,2,13/1/95,21,f,22,Ian pushed the button,Sensible,edin_semantics,sem_emo_sem_emo,0.715156473801471,1,1,1,1,602208.081821879,101,A
22,2,13/1/95,21,f,23,Jack posted the gift,Sensible,edin_semantics,sem_emo_sem_emo,1.43277352431323,1,1,1,1,602210.25761265,111,A
22,2,13/1/95,21,f,24,The folder carried Dan,Non-sensible,edin_semantics,sem_emo_sem_emo,1.47916880482808,1,2,2,1,602212.480473821,30,A
22,2,13/1/95,21,f,25,Lucy wiped the desk,Sensible,edin_semantics,sem_emo_sem_emo,0.75047338521108,1,1,1,1,602213.974166508,115,A
22,2,13/1/95,21,f,26,The picture painted Ryan,Non-sensible,edin_semantics,sem_emo_sem_emo,0.856250609387644,1,1,1,1,602215.573665926,35,A
22,2,13/1/95,21,f,27,The photo took Beth,Non-sensible,edin_semantics,sem_emo_sem_emo,0.7860821535578,1,1,1,1,602217.102609135,53,A
22,2,13/1/95,21,f,28,The lever pulled Hugh,Non-sensible,edin_semantics,sem_emo_sem_emo,0.809175078058615,1,1,1,1,602218.655077923,45,A
22,2,13/1/95,21,f,29,Tom offered the sweets,Sensible,edin_semantics,sem_emo_sem_emo,0.797525824513286,2,2,2,1,602220.19581471,84,A
22,2,13/1/95,21,f,30,The thread measured Amy,Non-sensible,edin_semantics,sem_emo_sem_emo,0.891921597649343,2,1,1,1,602221.830638095,51,A
22,2,13/1/95,21,f,31,The table wiped Beth,Non-sensible,edin_semantics,sem_emo_sem_emo,1.20894184929784,2,2,2,1,602223.782970191,40,A
22,2,13/1/95,21,f,32,The mirror kissed Max,Non-sensible,edin_semantics,sem_emo_sem_emo,0.809251730563119,2,1,1,1,602225.33542647,23,A
22,2,13/1/95,21,f,33,Adam watched the opera,Sensible,edin_semantics,sem_emo_sem_emo,1.32634106569458,1,2,2,1,602227.405462468,108,A
22,2,13/1/95,21,f,34,Erin punched the monitor,Sensible,edin_semantics,sem_emo_sem_emo,0.926383465179242,1,1,1,1,602229.075482494,125,A
22,2,13/1/95,21,f,35,The fruits mixed Jack,Non-sensible,edin_semantics,sem_emo_sem_emo,1.46770011761691,2,2,2,1,602231.286572858,8,A
22,2,13/1/95,21,f,36,Alex dusted the house,Sensible,edin_semantics,sem_emo_sem_emo,1.63225793209858,2,2,2,1,602233.662345797,122,A
22,2,13/1/95,21,f,37,Mike ate the steak,Sensible,edin_semantics,sem_emo_sem_emo,1.00851900991984,2,2,2,1,602235.414740947,142,A
22,2,13/1/95,21,f,38,The milk sniffed Phil,Non-sensible,edin_semantics,sem_emo_sem_emo,1.0327200278407,2,2,2,1,602237.190693426,18,A
22,2,13/1/95,21,f,39,Joe entered the office,Sensible,edin_semantics,sem_emo_sem_emo,0.809406318468973,1,1,2,0,602238.743176646,133,A
22,2,13/1/95,21,f,40,Ryan stroked the blanket,Sensible,edin_semantics,sem_emo_sem_emo,1.50248655525502,1,2,2,1,602240.989539982,116,A
22,2,13/1/95,21,f,41,The paper cut Jon,Non-sensible,edin_semantics,sem_emo_sem_emo,1.49164744478185,1,2,2,1,602243.224187355,20,A
22,2,13/1/95,21,f,42,The floor cleaned Tim,Non-sensible,edin_semantics,sem_emo_sem_emo,1.03133418946527,1,1,1,1,602245.000088519,5,A
22,2,13/1/95,21,f,43,Dan brushed the hair,Sensible,edin_semantics,sem_emo_sem_emo,0.820246070506983,2,1,1,1,602246.564330038,147,A
22,2,13/1/95,21,f,44,Liz weighed the sugar,Sensible,edin_semantics,sem_emo_sem_emo,1.03174599609338,1,1,2,0,602248.340282197,139,A
22,2,13/1/95,21,f,45,Leo passed the salt,Sensible,edin_semantics,sem_emo_sem_emo,1.12590700096916,2,2,1,0,602250.210299144,118,A
22,2,13/1/95,21,f,46,Fred served the dessert,Sensible,edin_semantics,sem_emo_sem_emo,0.797419665614143,2,1,1,1,602251.7510308,145,A
22,2,13/1/95,21,f,47,Tom grated the carrots,Sensible,edin_semantics,sem_emo_sem_emo,0.997594266547821,2,2,2,1,602253.491678555,140,A
22,2,13/1/95,21,f,48,Max kicked the door,Sensible,edin_semantics,sem_emo_sem_emo,1.39716860477347,1,2,2,1,602255.632219446,114,A
22,2,13/1/95,21,f,49,Phil solved the problem,Sensible,edin_semantics,sem_emo_sem_emo,1.37360902992077,2,1,1,1,602257.749219684,109,A
22,2,13/1/95,21,f,50,The bill paid Mike,Non-sensible,edin_semantics,sem_emo_sem_emo,0.985616914578713,2,1,1,1,602259.478099839,59,A
22,2,13/1/95,21,f,51,The ham ate Tim,Non-sensible,edin_semantics,sem_emo_sem_emo,0.879707553074695,2,1,1,1,602261.101142154,67,A
22,2,13/1/95,21,f,52,Ben got the radio,Sensible,edin_semantics,sem_emo_sem_emo,1.10297347512096,1,2,2,1,602262.947647955,88,A
22,2,13/1/95,21,f,53,The papers filed Lara,Non-sensible,edin_semantics,sem_emo_sem_emo,0.962160612340085,1,2,2,1,602264.653015361,24,A
22,2,13/1/95,21,f,54,Erin tidied the garage,Sensible,edin_semantics,sem_emo_sem_emo,2.12636402936187,1,1,2,0,602267.522733716,77,A
22,2,13/1/95,21,f,55,Ian labeled the box,Sensible,edin_semantics,sem_emo_sem_emo,0.91510240000207,1,2,2,1,602269.18106055,136,A
22,2,13/1/95,21,f,56,The money offered Matt,Non-sensible,edin_semantics,sem_emo_sem_emo,0.797484451439232,2,1,1,1,602270.7217364,9,A
22,2,13/1/95,21,f,57,The fur stroked Rob,Non-sensible,edin_semantics,sem_emo_sem_emo,1.02149380627088,1,1,1,1,602272.485952069,41,A
22,2,13/1/95,21,f,58,The box lifted Kate,Non-sensible,edin_semantics,sem_emo_sem_emo,1.16240288550034,1,1,1,1,602274.391253534,69,A
22,2,13/1/95,21,f,59,Jay painted the portrait,Sensible,edin_semantics,sem_emo_sem_emo,0.9620817147661,2,2,2,1,602276.096618375,110,A
22,2,13/1/95,21,f,60,Ryan knitted the socks,Sensible,edin_semantics,sem_emo_sem_emo,0.844336439622566,2,1,1,1,602277.684390924,141,A
22,2,13/1/95,21,f,61,Tom whisked the cream,Sensible,edin_semantics,sem_emo_sem_emo,0.762518730130978,2,1,1,1,602279.189813686,137,A
22,2,13/1/95,21,f,62,Leo carried the wallet,Sensible,edin_semantics,sem_emo_sem_emo,0.83286326227244,1,2,2,1,602280.765843973,150,A
22,2,13/1/95,21,f,63,Alex wrote the report,Sensible,edin_semantics,sem_emo_sem_emo,1.06796926714014,1,1,1,1,602282.577039277,149,A
22,2,13/1/95,21,f,64,Rob measured the curtains,Sensible,edin_semantics,sem_emo_sem_emo,1.72658186359331,2,2,1,0,602285.046884702,126,A
22,2,13/1/95,21,f,65,The gun carried Ryan,Non-sensible,edin_semantics,sem_emo_sem_emo,0.878982722060755,2,1,1,1,602286.669918036,75,A
22,2,13/1/95,21,f,66,The lesson taught Eve,Non-sensible,edin_semantics,sem_emo_sem_emo,0.926281154854223,1,1,2,0,602288.339980397,15,A
22,2,13/1/95,21,f,67,The room entered Ryan,Non-sensible,edin_semantics,sem_emo_sem_emo,0.985431537497789,1,2,2,1,602290.068896153,58,A
22,2,13/1/95,21,f,68,The dishes washed Mark,Non-sensible,edin_semantics,sem_emo_sem_emo,0.809045185800642,1,1,1,1,602291.6213736,57,A
22,2,13/1/95,21,f,69,Ben climbed the stairs,Sensible,edin_semantics,sem_emo_sem_emo,0.785290291649289,1,1,1,1,602293.150325789,143,A
22,2,13/1/95,21,f,70,The story wrote Ewan,Non-sensible,edin_semantics,sem_emo_sem_emo,0.879633145639673,2,2,1,0,602294.773340201,74,A
22,2,13/1/95,21,f,71,The hill climbed Luke,Non-sensible,edin_semantics,sem_emo_sem_emo,1.04446229082532,2,2,2,1,602296.561065733,68,A
22,2,13/1/95,21,f,72,Hugh kissed the rose,Sensible,edin_semantics,sem_emo_sem_emo,0.797581309336238,2,2,2,1,602298.101767561,98,A
22,2,13/1/95,21,f,73,The parcel mailed Rob,Non-sensible,edin_semantics,sem_emo_sem_emo,0.83306948619429,2,2,1,0,602299.67775455,14,A
22,2,13/1/95,21,f,74,The tomato sliced Liz,Non-sensible,edin_semantics,sem_emo_sem_emo,1.162257277756,2,1,1,1,602301.583064996,3,A
22,2,13/1/95,21,f,75,Bill trimmed the hair,Sensible,edin_semantics,sem_emo_sem_emo,0.832816116162576,1,1,1,1,602303.159103301,107,A
22,2,13/1/95,21,f,76,Jay squeezed the lemon,Sensible,edin_semantics,sem_emo_sem_emo,0.962064716499299,2,2,2,1,602304.864428371,76,A
22,2,13/1/95,21,f,77,The tree hugged Amy,Non-sensible,edin_semantics,sem_emo_sem_emo,0.586075289989822,2,1,1,1,602306.193427578,11,A
22,2,13/1/95,21,f,78,The museum visited Mary,Non-sensible,edin_semantics,sem_emo_sem_emo,2.04434041655622,1,2,2,1,602308.980850669,16,A
22,2,13/1/95,21,f,79,The bucket lent Max,Non-sensible,edin_semantics,sem_emo_sem_emo,0.962447979021817,1,1,1,1,602310.686196908,19,A
22,2,13/1/95,21,f,80,The house built Kate,Non-sensible,edin_semantics,sem_emo_sem_emo,0.879786129924469,1,2,2,1,602312.309247561,46,A
22,2,13/1/95,21,f,81,The trolley pushed Matt,Non-sensible,edin_semantics,sem_emo_sem_emo,0.809356606681831,2,2,1,0,602313.861739441,26,A
22,2,13/1/95,21,f,82,Lucy cut the ribbon,Sensible,edin_semantics,sem_emo_sem_emo,0.597681566956453,1,1,2,0,602315.202522925,95,A
22,2,13/1/95,21,f,83,The puzzle solved Joe,Non-sensible,edin_semantics,sem_emo_sem_emo,1.13809025625233,2,2,2,1,602317.084291436,34,A
22,2,13/1/95,21,f,84,Eve ironed the trousers,Sensible,edin_semantics,sem_emo_sem_emo,0.891590612824075,2,2,2,1,602318.719079862,130,A
22,2,13/1/95,21,f,85,The coins polished Jon,Non-sensible,edin_semantics,sem_emo_sem_emo,0.856382105266675,1,1,2,0,602320.318636048,29,A
22,2,13/1/95,21,f,86,The lolly sucked Leah,Non-sensible,edin_semantics,sem_emo_sem_emo,1.39715128578246,2,2,1,0,602322.45917309,12,A
22,2,13/1/95,21,f,87,The garlic crushed Erin,Non-sensible,edin_semantics,sem_emo_sem_emo,0.843801796552725,1,2,2,1,602324.046895927,6,A
22,2,13/1/95,21,f,88,The pen described John,Non-sensible,edin_semantics,sem_emo_sem_emo,0.72699302888941,1,2,2,1,602325.517047962,42,A
22,2,13/1/95,21,f,89,Sam sucked the candy,Sensible,edin_semantics,sem_emo_sem_emo,1.18539285846055,1,1,1,1,602327.445859611,87,A
22,2,13/1/95,21,f,90,The spoon licked Will,Non-sensible,edin_semantics,sem_emo_sem_emo,1.04418582865037,1,1,2,0,602329.233561088,21,A
22,2,13/1/95,21,f,91,The bowl scrubbed Liz,Non-sensible,edin_semantics,sem_emo_sem_emo,0.773797550122254,2,2,2,1,602330.750768128,56,A
22,2,13/1/95,21,f,92,The scarf knitted Tom,Non-sensible,edin_semantics,sem_emo_sem_emo,0.809274822589941,2,2,2,1,602332.303248141,66,A
22,2,13/1/95,21,f,93,The card posted Erin,Non-sensible,edin_semantics,sem_emo_sem_emo,0.985438914038241,2,2,2,1,602334.032144332,36,A
22,2,13/1/95,21,f,94,Max searched the internet,Sensible,edin_semantics,sem_emo_sem_emo,0.856554332887754,1,1,2,0,602335.631638939,85,A
22,2,13/1/95,21,f,95,Eve typed the message,Sensible,edin_semantics,sem_emo_sem_emo,0.621340244659223,2,2,2,1,602336.995939984,124,A
22,2,13/1/95,21,f,96,The kettle got Lily,Non-sensible,edin_semantics,sem_emo_sem_emo,0.997361422632821,2,1,1,1,602338.736590305,13,A
22,2,13/1/95,21,f,97,Jack drank the beer,Sensible,edin_semantics,sem_emo_sem_emo,1.16185701708309,2,1,1,1,602340.641891771,135,A
22,2,13/1/95,21,f,98,Joe iced the donut,Sensible,edin_semantics,sem_emo_sem_emo,1.56185727368575,1,1,1,1,602342.947079637,119,A
22,2,13/1/95,21,f,99,Jay sold the bed,Sensible,edin_semantics,sem_emo_sem_emo,1.30311247578356,2,1,1,1,602344.993531364,113,A
22,2,13/1/95,21,f,100,The teeth brushed Carl,Non-sensible,edin_semantics,sem_emo_sem_emo,1.89122114144266,1,2,2,1,602347.628052308,72,A
22,2,13/1/95,21,f,101,The wall punched Jane,Non-sensible,edin_semantics,sem_emo_sem_emo,1.45611789473332,1,2,2,1,602349.827397523,50,A
22,2,13/1/95,21,f,102,Ella mashed the turnip,Sensible,edin_semantics,sem_emo_sem_emo,1.38553314201999,1,1,2,0,602351.95612912,103,A
22,2,13/1/95,21,f,103,The jar labeled Liz,Non-sensible,edin_semantics,sem_emo_sem_emo,1.97370755567681,1,1,2,0,602354.672977401,61,A
22,2,13/1/95,21,f,104,Tom visited the hospital,Sensible,edin_semantics,sem_emo_sem_emo,1.16200839774683,2,1,1,1,602356.578286243,91,A
22,2,13/1/95,21,f,105,Liam sliced the onion,Sensible,edin_semantics,sem_emo_sem_emo,0.774374849279411,1,2,2,1,602358.095457362,78,A
22,2,13/1/95,21,f,106,The wine stored Leo,Non-sensible,edin_semantics,sem_emo_sem_emo,0.856352919596247,1,2,2,1,602359.695004246,52,A
22,2,13/1/95,21,f,107,The shelf dusted Jake,Non-sensible,edin_semantics,sem_emo_sem_emo,0.727187386131845,2,1,2,0,602361.165135755,47,A
22,2,13/1/95,21,f,108,The bushes trimmed Jon,Non-sensible,edin_semantics,sem_emo_sem_emo,1.11482766980771,2,2,2,1,602363.023434493,32,A
22,2,13/1/95,21,f,109,Sara jumped the hedge,Sensible,edin_semantics,sem_emo_sem_emo,0.856208915589377,2,2,2,1,602364.622920441,92,A
22,2,13/1/95,21,f,110,Fred lent the car,Sensible,edin_semantics,sem_emo_sem_emo,0.762503656325862,1,2,2,1,602366.128336789,94,A
22,2,13/1/95,21,f,111,The dish served Kate,Non-sensible,edin_semantics,sem_emo_sem_emo,0.914927927427925,2,2,1,0,602367.786697939,70,A
22,2,13/1/95,21,f,112,Andy pulled the rope,Sensible,edin_semantics,sem_emo_sem_emo,1.24453329865355,2,2,1,0,602369.774312629,148,A
22,2,13/1/95,21,f,113,The lorry dented Lily,Non-sensible,edin_semantics,sem_emo_sem_emo,0.84465363342315,1,1,1,1,602371.36209031,71,A
22,2,13/1/95,21,f,114,Erin described the church,Sensible,edin_semantics,sem_emo_sem_emo,0.761918980628252,2,1,1,1,602372.867481,117,A
22,2,13/1/95,21,f,115,The eggs whisked Dan,Non-sensible,edin_semantics,sem_emo_sem_emo,0.644868388655595,1,2,2,1,602374.255312434,62,A
22,2,13/1/95,21,f,116,Lucy counted the shoes,Sensible,edin_semantics,sem_emo_sem_emo,1.49116892798338,1,1,1,1,602376.489952431,123,A
22,2,13/1/95,21,f,117,John carried the kettle,Sensible,edin_semantics,sem_emo_sem_emo,0.691644045058638,2,1,2,0,602377.924798138,105,A
22,2,13/1/95,21,f,118,The laptop fixed Jen,Non-sensible,edin_semantics,sem_emo_sem_emo,0.833143252180889,1,1,2,0,602379.500810464,37,A
22,2,13/1/95,21,f,119,Ian mailed the invite,Sensible,edin_semantics,sem_emo_sem_emo,0.856231045327149,2,1,1,1,602381.100323672,89,A
22,2,13/1/95,21,f,120,Luke read the poster,Sensible,edin_semantics,sem_emo_sem_emo,1.27983770193532,1,1,1,1,602383.123254632,79,A
22,2,13/1/95,21,f,121,Phil cancelled the party,Sensible,edin_semantics,sem_emo_sem_emo,2.31461740471423,1,2,2,1,602386.1811542,82,A
22,2,13/1/95,21,f,122,The towels passed Phil,Non-sensible,edin_semantics,sem_emo_sem_emo,1.25617100624368,1,1,1,1,602388.18053649,43,A
22,2,13/1/95,21,f,123,Amy lifted the crate,Sensible,edin_semantics,sem_emo_sem_emo,2.17401365248952,1,2,2,1,602391.097332301,144,A
22,2,13/1/95,21,f,124,The sheets counted Bill,Non-sensible,edin_semantics,sem_emo_sem_emo,1.40926622715779,1,2,2,1,602393.249621548,48,A
22,2,13/1/95,21,f,125,Zoe paid the debt,Sensible,edin_semantics,sem_emo_sem_emo,1.11485685547814,2,2,1,0,602395.107855501,134,A
22,2,13/1/95,21,f,126,Jack cleaned the bath,Sensible,edin_semantics,sem_emo_sem_emo,1.12702439539135,2,2,1,0,602396.977890408,80,A
22,2,13/1/95,21,f,127,Ian filed the report,Sensible,edin_semantics,sem_emo_sem_emo,2.67932352097705,2,1,1,1,602400.400387047,99,A
22,2,13/1/95,21,f,128,The toffee chewed Ben,Non-sensible,edin_semantics,sem_emo_sem_emo,0.914855765062384,1,1,2,0,602402.058707145,31,A
22,2,13/1/95,21,f,129,Hugh dialed the hotline,Sensible,edin_semantics,sem_emo_sem_emo,1.15032578899991,1,2,2,1,602403.952274687,138,A
22,2,13/1/95,21,f,130,The letter typed Phil,Non-sensible,edin_semantics,sem_emo_sem_emo,0.891771179274656,2,1,1,1,602405.587041625,49,A
22,2,13/1/95,21,f,131,The flour weighed Jen,Non-sensible,edin_semantics,sem_emo_sem_emo,0.903406962403096,2,2,2,1,602407.233608235,64,A
22,2,13/1/95,21,f,132,Luke fixed the radio,Sensible,edin_semantics,sem_emo_sem_emo,1.52664620033465,2,2,1,0,602409.503553917,112,A
22,2,13/1/95,21,f,133,Fred stored the rice,Sensible,edin_semantics,sem_emo_sem_emo,0.821299962000921,2,1,1,1,602411.067965098,127,A
22,2,13/1/95,21,f,134,Fred chopped the carrots,Sensible,edin_semantics,sem_emo_sem_emo,0.74989448254928,1,2,2,1,602412.561417244,102,A
22,2,13/1/95,21,f,135,Kate wore the dress,Sensible,edin_semantics,sem_emo_sem_emo,1.69103339093272,2,2,2,1,602414.995971094,100,A
22,2,13/1/95,21,f,136,The cheese grated Andy,Non-sensible,edin_semantics,sem_emo_sem_emo,0.832718616817147,2,1,1,1,602416.571976685,65,A
22,2,13/1/95,21,f,137,Jane licked the plate,Sensible,edin_semantics,sem_emo_sem_emo,1.06791185797192,1,2,2,1,602418.383231322,96,A
22,2,13/1/95,21,f,138,The fence jumped Jon,Non-sensible,edin_semantics,sem_emo_sem_emo,0.844361135270447,2,1,1,1,602419.970995212,17,A
22,2,13/1/95,21,f,139,The movie watched Ella,Non-sensible,edin_semantics,sem_emo_sem_emo,0.821047874749638,2,1,2,0,602421.535195999,33,A
22,2,13/1/95,21,f,140,Liam mixed the nuts,Sensible,edin_semantics,sem_emo_sem_emo,0.985591898323037,1,1,2,0,602423.264078079,83,A
22,2,13/1/95,21,f,141,Anna polished the trophy,Sensible,edin_semantics,sem_emo_sem_emo,0.961401143227704,1,2,1,0,602424.969466653,104,A
22,2,13/1/95,21,f,142,The number dialed Tom,Non-sensible,edin_semantics,sem_emo_sem_emo,1.11496718379203,2,1,1,1,602426.827732998,63,A
22,2,13/1/95,21,f,143,Josh taught the rules,Sensible,edin_semantics,sem_emo_sem_emo,1.07980389788281,2,2,2,1,602428.650692695,90,A
22,2,13/1/95,21,f,144,The shirt ironed Josh,Non-sensible,edin_semantics,sem_emo_sem_emo,1.32675960753113,1,1,2,0,602430.720667114,55,A
22,2,13/1/95,21,f,145,Adam chewed the fat,Sensible,edin_semantics,sem_emo_sem_emo,1.36192674213089,2,2,2,1,602432.825904564,106,A
22,2,13/1/95,21,f,146,The pill swallowed Luke,Non-sensible,edin_semantics,sem_emo_sem_emo,1.70290201820899,1,2,2,1,602435.272275084,22,A
22,2,13/1/95,21,f,147,Tim sniffed the perfume,Sensible,edin_semantics,sem_emo_sem_emo,0.80866031977348,2,1,1,1,602436.824746758,93,A
22,2,13/1/95,21,f,148,Tim took the ticket,Sensible,edin_semantics,sem_emo_sem_emo,1.05619044194464,1,2,2,1,602438.624174783,128,A
22,2,13/1/95,21,f,149,The jumper wore Joe,Non-sensible,edin_semantics,sem_emo_sem_emo,1.20924974209629,1,1,1,1,602440.576548252,25,A
22,2,13/1/95,21,f,150,The garden watered Jeff,Non-sensible,edin_semantics,sem_emo_sem_emo,0.891408442985266,1,2,2,1,602442.211336358,54,A
22,2,13/1/95,21,f,151,The rice stored Fred,Non-sensible,edin_semantics,sem_emo_sem_emo,2.20184556092136,2,2,2,1,602447.468593969,127,B
22,2,13/1/95,21,f,152,The cream whisked Tom,Non-sensible,edin_semantics,sem_emo_sem_emo,1.14710189460311,1,2,2,1,602449.362121099,137,B
22,2,13/1/95,21,f,153,The gift posted Jack,Non-sensible,edin_semantics,sem_emo_sem_emo,3.08977032476105,2,2,2,1,602453.196290661,111,B
22,2,13/1/95,21,f,154,The hedge jumped Sara,Non-sensible,edin_semantics,sem_emo_sem_emo,8.21715970139485,2,1,1,1,602462.158275518,92,B
22,2,13/1/95,21,f,155,The pillow hugged Kate,Non-sensible,edin_semantics,sem_emo_sem_emo,0.795903293415904,2,1,1,1,602463.699017758,86,B
22,2,13/1/95,21,f,156,The report wrote Alex,Non-sensible,edin_semantics,sem_emo_sem_emo,1.27852178085595,1,2,2,1,602465.721933644,149,B
22,2,13/1/95,21,f,157,Jen weighed the flour,Sensible,edin_semantics,sem_emo_sem_emo,0.784009649883956,1,1,2,0,602467.250836763,64,B
22,2,13/1/95,21,f,158,The shed built Rose,Non-sensible,edin_semantics,sem_emo_sem_emo,0.772473611054011,2,2,2,1,602468.768039954,121,B
22,2,13/1/95,21,f,159,The ice crushed Josh,Non-sensible,edin_semantics,sem_emo_sem_emo,0.67869843437802,1,2,2,1,602470.191192469,81,B
22,2,13/1/95,21,f,160,The fat chewed Adam,Non-sensible,edin_semantics,sem_emo_sem_emo,0.996647175401449,1,1,2,0,602471.93182066,106,B
22,2,13/1/95,21,f,161,Matt kicked the bike,Sensible,edin_semantics,sem_emo_sem_emo,1.56170428951737,1,2,2,1,602474.236991849,39,B
22,2,13/1/95,21,f,162,The hospital visited Tom,Non-sensible,edin_semantics,sem_emo_sem_emo,0.89091709733475,1,2,2,1,602475.871787972,91,B
22,2,13/1/95,21,f,163,The trousers ironed Eve,Non-sensible,edin_semantics,sem_emo_sem_emo,0.914820806356147,1,1,2,0,602477.530120258,130,B
22,2,13/1/95,21,f,164,Kate served the dish,Sensible,edin_semantics,sem_emo_sem_emo,0.726349981850944,1,1,2,0,602479.000271651,70,B
22,2,13/1/95,21,f,165,The onion sliced Liam,Non-sensible,edin_semantics,sem_emo_sem_emo,1.65577966161072,1,1,2,0,602481.39960641,78,B
22,2,13/1/95,21,f,166,The desk wiped Lucy,Non-sensible,edin_semantics,sem_emo_sem_emo,1.14884405490011,1,2,2,1,602483.29305336,115,B
22,2,13/1/95,21,f,167,The poster read Luke,Non-sensible,edin_semantics,sem_emo_sem_emo,0.902060252032243,2,2,2,1,602484.939669041,79,B
22,2,13/1/95,21,f,168,The hair brushed Dan,Non-sensible,edin_semantics,sem_emo_sem_emo,1.25554175034631,2,2,1,0,602486.93905101,147,B
22,2,13/1/95,21,f,169,The sweets offered Tom,Non-sensible,edin_semantics,sem_emo_sem_emo,0.655835467157885,1,1,1,1,602488.33861284,84,B
22,2,13/1/95,21,f,170,Andy grated the cheese,Sensible,edin_semantics,sem_emo_sem_emo,0.949727514875121,2,2,1,0,602490.032222268,65,B
22,2,13/1/95,21,f,171,Tom knitted the scarf,Sensible,edin_semantics,sem_emo_sem_emo,0.762027063872665,1,1,1,1,602491.537672933,66,B
22,2,13/1/95,21,f,172,The box labeled Ian,Non-sensible,edin_semantics,sem_emo_sem_emo,0.785442313645035,1,1,1,1,602493.06663282,136,B
22,2,13/1/95,21,f,173,Mike paid the bill,Sensible,edin_semantics,sem_emo_sem_emo,1.67957528750412,2,2,1,0,602495.489415863,59,B
22,2,13/1/95,21,f,174,The opera watched Adam,Non-sensible,edin_semantics,sem_emo_sem_emo,1.04390102776233,2,1,2,0,602497.277104832,108,B
22,2,13/1/95,21,f,175,The pan washed Beth,Non-sensible,edin_semantics,sem_emo_sem_emo,1.11468943883665,2,1,1,1,602499.135356104,132,B
22,2,13/1/95,21,f,176,Leah sucked the lolly,Sensible,edin_semantics,sem_emo_sem_emo,1.23186607426032,1,1,1,1,602501.111313843,12,B
22,2,13/1/95,21,f,177,The turnip mashed Ella,Non-sensible,edin_semantics,sem_emo_sem_emo,1.29099496849813,2,2,1,0,602503.145954673,103,B
22,2,13/1/95,21,f,178,The blanket stroked Ryan,Non-sensible,edin_semantics,sem_emo_sem_emo,0.796425107633695,2,1,1,1,602504.686654898,116,B
22,2,13/1/95,21,f,179,Kate lifted the box,Sensible,edin_semantics,sem_emo_sem_emo,1.36116085865069,2,2,2,1,602506.791876632,69,B
22,2,13/1/95,21,f,180,Phil typed the letter,Sensible,edin_semantics,sem_emo_sem_emo,1.38501549733337,1,2,2,1,602508.920655376,49,B
22,2,13/1/95,21,f,181,Liz sliced the tomato,Sensible,edin_semantics,sem_emo_sem_emo,1.52634664624929,2,2,1,0,602511.190621905,3,B
22,2,13/1/95,21,f,182,The kettle carried John,Non-sensible,edin_semantics,sem_emo_sem_emo,0.879365663742647,2,2,1,0,602512.813601358,105,B
22,2,13/1/95,21,f,183,The stairs climbed Ben,Non-sensible,edin_semantics,sem_emo_sem_emo,1.04280608391855,2,2,1,0,602514.601295459,143,B
22,2,13/1/95,21,f,184,Lily dented the lorry,Sensible,edin_semantics,sem_emo_sem_emo,1.06639388215262,1,2,2,1,602516.41252925,71,B
22,2,13/1/95,21,f,185,Amy measured the thread,Sensible,edin_semantics,sem_emo_sem_emo,1.14891108567826,1,2,2,1,602518.306076586,51,B
22,2,13/1/95,21,f,186,Jen fixed the laptop,Sensible,edin_semantics,sem_emo_sem_emo,0.925452730734833,2,2,1,0,602519.97616268,37,B
22,2,13/1/95,21,f,187,Ella watched the movie,Sensible,edin_semantics,sem_emo_sem_emo,0.937952217529528,1,2,2,1,602521.657994245,33,B
22,2,13/1/95,21,f,188,Will mashed the potatoes,Sensible,edin_semantics,sem_emo_sem_emo,1.03153464058414,1,1,2,0,602523.433948649,28,B
22,2,13/1/95,21,f,189,The beer drank Jack,Non-sensible,edin_semantics,sem_emo_sem_emo,1.12379761424381,1,2,2,1,602525.304031985,135,B
22,2,13/1/95,21,f,190,Matt drank the juice,Sensible,edin_semantics,sem_emo_sem_emo,0.831065617036074,1,1,2,0,602526.879960923,60,B
22,2,13/1/95,21,f,191,Ian cancelled the plans,Sensible,edin_semantics,sem_emo_sem_emo,1.23139557568356,2,2,2,1,602528.855839123,7,B
22,2,13/1/95,21,f,192,The portrait painted Jay,Non-sensible,edin_semantics,sem_emo_sem_emo,0.807676666416228,1,1,2,0,602530.408312722,110,B
22,2,13/1/95,21,f,193,Jake dusted the shelf,Sensible,edin_semantics,sem_emo_sem_emo,0.74877035303507,2,2,2,1,602531.901967243,47,B
22,2,13/1/95,21,f,194,Dan whisked the eggs,Sensible,edin_semantics,sem_emo_sem_emo,0.831646123318933,2,1,1,1,602533.477992077,62,B
22,2,13/1/95,21,f,195,Rob mailed the parcel,Sensible,edin_semantics,sem_emo_sem_emo,0.972629930707626,1,1,1,1,602535.195094048,14,B
22,2,13/1/95,21,f,196,The rope pulled Andy,Non-sensible,edin_semantics,sem_emo_sem_emo,0.890054676681757,2,1,1,1,602536.829913264,148,B
22,2,13/1/95,21,f,197,The problem solved Phil,Non-sensible,edin_semantics,sem_emo_sem_emo,1.00780508329626,1,2,2,1,602538.58235107,109,B
22,2,13/1/95,21,f,198,The socks knitted Ryan,Non-sensible,edin_semantics,sem_emo_sem_emo,0.807326117530465,1,2,2,1,602540.134830762,141,B
22,2,13/1/95,21,f,199,The trophy polished Anna,Non-sensible,edin_semantics,sem_emo_sem_emo,0.842433277051896,1,1,1,1,602541.722547505,104,B
22,2,13/1/95,21,f,200,Lara filed the papers,Sensible,edin_semantics,sem_emo_sem_emo,0.760282658389769,1,1,2,0,602543.227973475,24,B
22,2,13/1/95,21,f,201,Will licked the spoon,Sensible,edin_semantics,sem_emo_sem_emo,0.865893748821691,1,2,2,1,602544.839271923,21,B
22,2,13/1/95,21,f,202,Jon polished the coins,Sensible,edin_semantics,sem_emo_sem_emo,0.831335985451005,2,2,1,0,602546.41525346,29,B
22,2,13/1/95,21,f,203,Phil chopped the herbs,Sensible,edin_semantics,sem_emo_sem_emo,0.901441579917446,1,2,2,1,602548.061826805,27,B
22,2,13/1/95,21,f,204,The rope pulled Emma,Non-sensible,edin_semantics,sem_emo_sem_emo,0.760880483663641,2,1,2,0,602549.567238022,120,B
22,2,13/1/95,21,f,205,Phil sniffed the milk,Sensible,edin_semantics,sem_emo_sem_emo,1.67796750960406,1,1,2,0,602551.990099963,18,B
22,2,13/1/95,21,f,206,The gum swallowed Owen,Non-sensible,edin_semantics,sem_emo_sem_emo,1.13717074703891,1,2,2,1,602553.871826138,97,B
22,2,13/1/95,21,f,207,The hotline dialed Hugh,Non-sensible,edin_semantics,sem_emo_sem_emo,1.20801945368294,1,1,1,1,602555.824203456,138,B
22,2,13/1/95,21,f,208,The bed sold Jay,Non-sensible,edin_semantics,sem_emo_sem_emo,1.34926112135872,2,2,1,0,602557.917702491,113,B
22,2,13/1/95,21,f,209,The wallet carried Leo,Non-sensible,edin_semantics,sem_emo_sem_emo,1.47816366294865,1,1,2,0,602560.140564945,150,B
22,2,13/1/95,21,f,210,The steak ate Mike,Non-sensible,edin_semantics,sem_emo_sem_emo,1.99539411568549,1,1,2,0,602562.880872414,142,B
22,2,13/1/95,21,f,211,Sean read the book,Sensible,edin_semantics,sem_emo_sem_emo,1.478530889377,1,1,1,1,602565.103778166,4,B
22,2,13/1/95,21,f,212,The radio got Ben,Non-sensible,edin_semantics,sem_emo_sem_emo,1.57271081686486,1,1,1,1,602567.420688731,88,B
22,2,13/1/95,21,f,213,Max lent the bucket,Sensible,edin_semantics,sem_emo_sem_emo,3.03122770984191,1,2,2,1,602571.196046592,19,B
22,2,13/1/95,21,f,214,Tom dialed the number,Sensible,edin_semantics,sem_emo_sem_emo,1.57242729875725,2,2,2,1,602573.513008793,63,B
22,2,13/1/95,21,f,215,Ewan wrote the story,Sensible,edin_semantics,sem_emo_sem_emo,1.10209149029106,1,1,2,0,602575.359474183,74,B
22,2,13/1/95,21,f,216,Amy hugged the tree,Sensible,edin_semantics,sem_emo_sem_emo,0.995998996775597,2,2,1,0,602577.100145992,11,B
22,2,13/1/95,21,f,217,The bath cleaned Jack,Non-sensible,edin_semantics,sem_emo_sem_emo,0.890389830805361,2,1,1,1,602578.734945965,80,B
22,2,13/1/95,21,f,218,The candy sucked Sam,Non-sensible,edin_semantics,sem_emo_sem_emo,1.04300910083111,2,2,1,0,602580.522650649,87,B
22,2,13/1/95,21,f,219,The rose kissed Hugh,Non-sensible,edin_semantics,sem_emo_sem_emo,1.2432834461797,1,1,1,1,602582.510321145,98,B
22,2,13/1/95,21,f,220,The door kicked Max,Non-sensible,edin_semantics,sem_emo_sem_emo,0.960433205240406,2,1,1,1,602584.215655517,114,B
22,2,13/1/95,21,f,221,Erin posted the card,Sensible,edin_semantics,sem_emo_sem_emo,1.06696155958343,1,1,1,1,602586.02692138,36,B
22,2,13/1/95,21,f,222,Sam tidied the room,Sensible,edin_semantics,sem_emo_sem_emo,1.52564683160745,1,1,1,1,602588.296789448,2,B
22,2,13/1/95,21,f,223,The debt paid Zoe,Non-sensible,edin_semantics,sem_emo_sem_emo,0.94901326764375,1,1,2,0,602589.990381877,134,B
22,2,13/1/95,21,f,224,Beth took the photo,Sensible,edin_semantics,sem_emo_sem_emo,0.902341525070369,1,2,2,1,602591.637004934,53,B
22,2,13/1/95,21,f,225,Liz scrubbed the bowl,Sensible,edin_semantics,sem_emo_sem_emo,1.80751822981983,1,1,1,1,602594.189108099,56,B
22,2,13/1/95,21,f,226,Phil passed the towels,Sensible,edin_semantics,sem_emo_sem_emo,2.83107523876242,2,2,2,1,602597.764538315,43,B
22,2,13/1/95,21,f,227,Rob stroked the fur,Sensible,edin_semantics,sem_emo_sem_emo,1.52070643450134,1,2,2,1,602600.02266412,41,B
22,2,13/1/95,21,f,228,The bowl dented Ian,Non-sensible,edin_semantics,sem_emo_sem_emo,1.29041189642157,1,1,1,1,602602.057333494,146,B
22,2,13/1/95,21,f,229,The salt passed Leo,Non-sensible,edin_semantics,sem_emo_sem_emo,1.26713776402175,1,1,1,1,602604.06856613,118,B
22,2,13/1/95,21,f,230,Joe wore the jumper,Sensible,edin_semantics,sem_emo_sem_emo,1.36089337675367,2,2,1,0,602606.17373238,25,B
22,2,13/1/95,21,f,231,The shoes counted Lucy,Non-sensible,edin_semantics,sem_emo_sem_emo,1.04352610406931,2,2,1,0,602607.961449252,123,B
22,2,13/1/95,21,f,232,Mary iced the cake,Sensible,edin_semantics,sem_emo_sem_emo,1.03147209982853,1,1,1,1,602609.73739692,44,B
22,2,13/1/95,21,f,233,Ryan carried the gun,Sensible,edin_semantics,sem_emo_sem_emo,1.59649938670918,1,2,2,1,602612.077840119,75,B
22,2,13/1/95,21,f,234,Joe solved the puzzle,Sensible,edin_semantics,sem_emo_sem_emo,0.83228949108161,2,1,1,1,602613.65384122,34,B
22,2,13/1/95,21,f,235,The curtains measured Rob,Non-sensible,edin_semantics,sem_emo_sem_emo,0.973507746006362,1,1,1,1,602615.370994186,126,B
22,2,13/1/95,21,f,236,Josh ironed the shirt,Sensible,edin_semantics,sem_emo_sem_emo,1.20851689309347,2,2,2,1,602617.323338469,55,B
22,2,13/1/95,21,f,237,Bill counted the sheets,Sensible,edin_semantics,sem_emo_sem_emo,1.16149877093267,1,1,2,0,602619.22867361,48,B
22,2,13/1/95,21,f,238,The church described Erin,Non-sensible,edin_semantics,sem_emo_sem_emo,1.00855140271597,1,2,2,1,602620.981043102,117,B
22,2,13/1/95,21,f,239,Matt offered the money,Sensible,edin_semantics,sem_emo_sem_emo,1.40839226054959,2,2,2,1,602623.133351272,9,B
22,2,13/1/95,21,f,240,The plants watered Luke,Non-sensible,edin_semantics,sem_emo_sem_emo,1.0794940807391,2,2,2,1,602624.956340476,129,B
22,2,13/1/95,21,f,241,The crate lifted Amy,Non-sensible,edin_semantics,sem_emo_sem_emo,0.808574366383255,2,1,1,1,602626.508787775,144,B
22,2,13/1/95,21,f,242,The plate licked Jane,Non-sensible,edin_semantics,sem_emo_sem_emo,0.714753647334874,2,1,2,0,602627.967171568,96,B
22,2,13/1/95,21,f,243,The invite mailed Ian,Non-sensible,edin_semantics,sem_emo_sem_emo,0.950094741187058,1,2,2,1,602629.660780034,89,B
22,2,13/1/95,21,f,244,The pot scrubbed Josh,Non-sensible,edin_semantics,sem_emo_sem_emo,1.73769390839152,1,2,2,1,602632.14240236,131,B
22,2,13/1/95,21,f,245,Mary visited the museum,Sensible,edin_semantics,sem_emo_sem_emo,0.831907190848142,1,1,2,0,602633.718389669,16,B
22,2,13/1/95,21,f,246,Leo stored the wine,Sensible,edin_semantics,sem_emo_sem_emo,0.890758340014145,2,1,1,1,602635.353184189,52,B
22,2,13/1/95,21,f,247,The radio fixed Luke,Non-sensible,edin_semantics,sem_emo_sem_emo,1.19689618365373,1,1,1,1,602637.293793265,112,B
22,2,13/1/95,21,f,248,Mark washed the dishes,Sensible,edin_semantics,sem_emo_sem_emo,1.00842760421801,2,2,1,0,602639.046191943,57,B
22,2,13/1/95,21,f,249,The ticket took Tim,Non-sensible,edin_semantics,sem_emo_sem_emo,0.902859811321832,1,1,1,1,602640.692768175,128,B
22,2,13/1/95,21,f,250,The dress wore Kate,Non-sensible,edin_semantics,sem_emo_sem_emo,0.87818701157812,1,1,1,1,602642.315814979,100,B
22,2,13/1/95,21,f,251,Jane punched the wall,Sensible,edin_semantics,sem_emo_sem_emo,0.784070586902089,2,1,1,1,602643.844747605,50,B
22,2,13/1/95,21,f,252,Dan carried the folder,Sensible,edin_semantics,sem_emo_sem_emo,0.560555464355275,2,1,1,1,602645.150248174,30,B
22,2,13/1/95,21,f,253,The garage tidied Erin,Non-sensible,edin_semantics,sem_emo_sem_emo,0.571982778492384,2,2,1,0,602646.467547775,77,B
22,2,13/1/95,21,f,254,The button pushed Ian,Non-sensible,edin_semantics,sem_emo_sem_emo,1.49039438506588,1,2,2,1,602648.702109194,101,B
22,2,13/1/95,21,f,255,The party cancelled Phil,Non-sensible,edin_semantics,sem_emo_sem_emo,0.878180597093888,1,1,2,0,602650.325170432,82,B
22,2,13/1/95,21,f,256,Jack mixed the fruits,Sensible,edin_semantics,sem_emo_sem_emo,1.19568610063288,1,1,2,0,602652.265747115,8,B
22,2,13/1/95,21,f,257,The house dusted Alex,Non-sensible,edin_semantics,sem_emo_sem_emo,0.890731399413198,2,1,1,1,602653.90057499,122,B
22,2,13/1/95,21,f,258,The lemon squeezed Jay,Non-sensible,edin_semantics,sem_emo_sem_emo,1.30244312959258,2,1,1,1,602655.946989193,76,B
22,2,13/1/95,21,f,259,The dessert served Fred,Non-sensible,edin_semantics,sem_emo_sem_emo,1.09030625072774,1,2,2,1,602657.781742147,145,B
22,2,13/1/95,21,f,260,Lily got the kettle,Sensible,edin_semantics,sem_emo_sem_emo,1.19626019254792,2,2,2,1,602659.72237624,13,B
22,2,13/1/95,21,f,261,Jen searched the room,Sensible,edin_semantics,sem_emo_sem_emo,1.06696123885922,2,1,1,1,602661.533571865,10,B
22,2,13/1/95,21,f,262,Luke climbed the hill,Sensible,edin_semantics,sem_emo_sem_emo,1.52560642058961,1,1,1,1,602663.803466553,68,B
22,2,13/1/95,21,f,263,Eve taught the lesson,Sensible,edin_semantics,sem_emo_sem_emo,1.49029720644467,1,2,2,1,602666.038068383,15,B
22,2,13/1/95,21,f,264,The rules taught Josh,Non-sensible,edin_semantics,sem_emo_sem_emo,1.27836302365176,1,1,2,0,602668.061001909,90,B
22,2,13/1/95,21,f,265,Ryan entered the room,Sensible,edin_semantics,sem_emo_sem_emo,1.74876105203293,1,1,2,0,602670.554361045,58,B
22,2,13/1/95,21,f,266,The carrots chopped Fred,Non-sensible,edin_semantics,sem_emo_sem_emo,1.29002767195925,2,1,1,1,602672.589035551,102,B
22,2,13/1/95,21,f,267,Carl sold the sofa,Sensible,edin_semantics,sem_emo_sem_emo,1.0781916299602,2,1,1,1,602674.412010322,38,B
22,2,13/1/95,21,f,268,The carrots grated Tom,Non-sensible,edin_semantics,sem_emo_sem_emo,1.13683110277634,1,1,1,1,602676.293818602,140,B
22,2,13/1/95,21,f,269,Hugh pulled the lever,Sensible,edin_semantics,sem_emo_sem_emo,1.466664186446,2,2,1,0,602678.504912494,45,B
22,2,13/1/95,21,f,270,The perfume sniffed Tim,Non-sensible,edin_semantics,sem_emo_sem_emo,1.20768814813346,2,2,1,0,602680.457290774,93,B
22,2,13/1/95,21,f,271,The message typed Eve,Non-sensible,edin_semantics,sem_emo_sem_emo,0.866348532144912,2,1,1,1,602682.068537907,124,B
22,2,13/1/95,21,f,272,The donut iced Joe,Non-sensible,edin_semantics,sem_emo_sem_emo,1.12496311706491,2,2,1,0,602683.938621243,119,B
22,2,13/1/95,21,f,273,The car lent Fred,Non-sensible,edin_semantics,sem_emo_sem_emo,1.09056956332643,2,1,1,1,602685.773293055,94,B
22,2,13/1/95,21,f,274,Beth wiped the table,Sensible,edin_semantics,sem_emo_sem_emo,0.572333327378146,2,1,1,1,602687.090635953,40,B
22,2,13/1/95,21,f,275,Ryan painted the picture,Sensible,edin_semantics,sem_emo_sem_emo,0.572589263319969,2,2,1,0,602688.407826187,35,B
22,2,13/1/95,21,f,276,The office entered Joe,Non-sensible,edin_semantics,sem_emo_sem_emo,0.666002986603417,1,2,2,1,602689.819176143,133,B
22,2,13/1/95,21,f,277,Jon jumped the fence,Sensible,edin_semantics,sem_emo_sem_emo,0.913648568559438,1,2,2,1,602691.477471866,17,B
22,2,13/1/95,21,f,278,Jon cut the paper,Sensible,edin_semantics,sem_emo_sem_emo,1.03152020799462,1,1,2,0,602693.253400612,20,B
22,2,13/1/95,21,f,279,The nuts mixed Liam,Non-sensible,edin_semantics,sem_emo_sem_emo,0.901464351103641,2,2,2,1,602694.899984221,83,B
22,2,13/1/95,21,f,280,Erin crushed the garlic,Sensible,edin_semantics,sem_emo_sem_emo,0.961028785444796,1,1,1,1,602696.605342005,6,B
22,2,13/1/95,21,f,281,The internet searched Max,Non-sensible,edin_semantics,sem_emo_sem_emo,0.91387082869187,1,2,2,1,602698.263669159,85,B
22,2,13/1/95,21,f,282,Max kissed the mirror,Sensible,edin_semantics,sem_emo_sem_emo,1.12485471309628,1,2,2,1,602700.133688351,23,B
22,2,13/1/95,21,f,283,The ribbon cut Lucy,Non-sensible,edin_semantics,sem_emo_sem_emo,1.56025879667141,2,2,2,1,602702.438892894,95,B
22,2,13/1/95,21,f,284,The hair trimmed Bill,Non-sensible,edin_semantics,sem_emo_sem_emo,0.948746427078731,2,2,2,1,602704.132502322,107,B
22,2,13/1/95,21,f,285,John described the pen,Sensible,edin_semantics,sem_emo_sem_emo,1.20758615876548,2,1,1,1,602706.084839549,42,B
22,2,13/1/95,21,f,286,Tim cleaned the floor,Sensible,edin_semantics,sem_emo_sem_emo,1.10201900720131,2,2,1,0,602707.931355934,5,B
22,2,13/1/95,21,f,287,Josh squeezed the ball,Sensible,edin_semantics,sem_emo_sem_emo,0.984446601127274,2,2,1,0,602709.660255974,1,B
22,2,13/1/95,21,f,288,Luke swallowed the pill,Sensible,edin_semantics,sem_emo_sem_emo,1.39580008527264,2,1,1,1,602711.800787885,22,B
22,2,13/1/95,21,f,289,Kate built the house,Sensible,edin_semantics,sem_emo_sem_emo,1.56053750391584,1,1,1,1,602714.105971902,46,B
22,2,13/1/95,21,f,290,Carl brushed the teeth,Sensible,edin_semantics,sem_emo_sem_emo,0.831192302168347,1,1,1,1,602715.681994491,72,B
22,2,13/1/95,21,f,291,Ben chewed the toffee,Sensible,edin_semantics,sem_emo_sem_emo,0.796207337523811,2,2,1,0,602717.222679322,31,B
22,2,13/1/95,21,f,292,Matt pushed the trolley,Sensible,edin_semantics,sem_emo_sem_emo,1.03073989215773,1,1,1,1,602718.998618972,26,B
22,2,13/1/95,21,f,293,Tim ate the ham,Sensible,edin_semantics,sem_emo_sem_emo,0.984496954479255,1,2,2,1,602720.727485657,67,B
22,2,13/1/95,21,f,294,The report filed Ian,Non-sensible,edin_semantics,sem_emo_sem_emo,1.06666970287915,1,2,2,1,602722.538707261,99,B
22,2,13/1/95,21,f,295,Jeff watered the garden,Sensible,edin_semantics,sem_emo_sem_emo,1.26738439907786,1,1,2,0,602724.549878318,54,B
22,2,13/1/95,21,f,296,Tim pulled the handle,Sensible,edin_semantics,sem_emo_sem_emo,1.25518350419588,2,2,2,1,602726.549285945,73,B
22,2,13/1/95,21,f,297,Liz labeled the jar,Sensible,edin_semantics,sem_emo_sem_emo,2.05521288223099,2,2,1,0,602729.348408643,61,B
22,2,13/1/95,21,f,298,The sugar weighed Liz,Non-sensible,edin_semantics,sem_emo_sem_emo,0.878463794360869,1,2,2,1,602730.971486879,139,B
22,2,13/1/95,21,f,299,The monitor punched Erin,Non-sensible,edin_semantics,sem_emo_sem_emo,1.0550486727152,1,2,2,1,602732.770922601,125,B
22,2,13/1/95,21,f,300,Jon trimmed the bushes,Sensible,edin_semantics,sem_emo_sem_emo,0.902036839281209,2,1,1,1,602734.417552072,32,B
