subject_column,AssignedList_column,subject_dob_column,subject_age_column,subject_gender_column,trialnum_column,Stim_column,Type_column,Experiment_column,OrderGroup_column,ReactionTime_column,StimSide_column,StimPosition_column,Response_column,Valid_column,TrialEndSecs_column,PairID_column,List_column
23,3,26/8/94,21,f,1,Luke swallowed the pill,Sensible,edin_semantics,emo_sem_emo_sem,0.966311392607167,1,2,2,1,605820.924123019,22,B
23,3,26/8/94,21,f,2,The sweets offered Tom,Non-sensible,edin_semantics,emo_sem_emo_sem,4.12266546674073,2,2,2,1,605825.793288129,84,B
23,3,26/8/94,21,f,3,Will licked the spoon,Sensible,edin_semantics,emo_sem_emo_sem,1.13515404902864,1,1,1,1,605827.675033868,21,B
23,3,26/8/94,21,f,4,The ticket took Tim,Non-sensible,edin_semantics,emo_sem_emo_sem,1.51224034361076,1,2,2,1,605829.933180199,128,B
23,3,26/8/94,21,f,5,The nuts mixed Liam,Non-sensible,edin_semantics,emo_sem_emo_sem,0.926564993569627,1,1,1,1,605831.603241278,83,B
23,3,26/8/94,21,f,6,Phil typed the letter,Sensible,edin_semantics,emo_sem_emo_sem,0.996958275442012,2,1,1,1,605833.343920464,49,B
23,3,26/8/94,21,f,7,Jack mixed the fruits,Sensible,edin_semantics,emo_sem_emo_sem,1.17389338184148,2,2,2,1,605835.261030261,8,B
23,3,26/8/94,21,f,8,The desk wiped Lucy,Non-sensible,edin_semantics,emo_sem_emo_sem,4.0549803590402,1,1,1,1,605840.059560906,115,B
23,3,26/8/94,21,f,9,The button pushed Ian,Non-sensible,edin_semantics,emo_sem_emo_sem,2.20843639189843,1,1,1,1,605843.011573243,101,B
23,3,26/8/94,21,f,10,The office entered Joe,Non-sensible,edin_semantics,emo_sem_emo_sem,4.01957428676542,2,1,1,1,605847.774860422,133,B
23,3,26/8/94,21,f,11,The plants watered Luke,Non-sensible,edin_semantics,emo_sem_emo_sem,1.37292909994721,1,1,1,1,605849.891866113,129,B
23,3,26/8/94,21,f,12,Liz sliced the tomato,Sensible,edin_semantics,emo_sem_emo_sem,2.05533347360324,1,1,1,1,605852.691021845,3,B
23,3,26/8/94,21,f,13,The party cancelled Phil,Non-sensible,edin_semantics,emo_sem_emo_sem,1.13829872536007,1,2,2,1,605854.57283237,82,B
23,3,26/8/94,21,f,14,The sugar weighed Liz,Non-sensible,edin_semantics,emo_sem_emo_sem,3.56106829829514,2,1,1,1,605858.877404771,139,B
23,3,26/8/94,21,f,15,The debt paid Zoe,Non-sensible,edin_semantics,emo_sem_emo_sem,0.973265921929851,1,2,2,1,605860.594541701,134,B
23,3,26/8/94,21,f,16,The hedge jumped Sara,Non-sensible,edin_semantics,emo_sem_emo_sem,0.997107090312056,1,2,2,1,605862.335184646,92,B
23,3,26/8/94,21,f,17,Mary iced the cake,Sensible,edin_semantics,emo_sem_emo_sem,7.37159072828945,2,2,2,1,605870.45038756,44,B
23,3,26/8/94,21,f,18,The carrots grated Tom,Non-sensible,edin_semantics,emo_sem_emo_sem,1.60781220335048,2,2,2,1,605872.802640373,140,B
23,3,26/8/94,21,f,19,The ice crushed Josh,Non-sensible,edin_semantics,emo_sem_emo_sem,1.36157426878344,2,1,1,1,605874.907871729,81,B
23,3,26/8/94,21,f,20,The crate lifted Amy,Non-sensible,edin_semantics,emo_sem_emo_sem,4.12505997496191,2,2,2,1,605879.777008295,144,B
23,3,26/8/94,21,f,21,Jeff watered the garden,Sensible,edin_semantics,emo_sem_emo_sem,1.47871498356108,1,2,2,1,605881.999881012,54,B
23,3,26/8/94,21,f,22,The pillow hugged Kate,Non-sensible,edin_semantics,emo_sem_emo_sem,2.88999598461669,2,2,2,1,605885.634086046,86,B
23,3,26/8/94,21,f,23,The portrait painted Jay,Non-sensible,edin_semantics,emo_sem_emo_sem,0.996376165538095,2,2,2,1,605887.3747957,110,B
23,3,26/8/94,21,f,24,The problem solved Phil,Non-sensible,edin_semantics,emo_sem_emo_sem,1.78416519996244,2,1,1,1,605889.903388681,109,B
23,3,26/8/94,21,f,25,Sean read the book,Sensible,edin_semantics,emo_sem_emo_sem,1.39606532210018,1,2,2,1,605892.043947212,4,B
23,3,26/8/94,21,f,26,The donut iced Joe,Non-sensible,edin_semantics,emo_sem_emo_sem,2.76084456278477,2,1,1,1,605895.548726607,119,B
23,3,26/8/94,21,f,27,The internet searched Max,Non-sensible,edin_semantics,emo_sem_emo_sem,0.937385823111981,1,1,1,1,605897.230583829,85,B
23,3,26/8/94,21,f,28,Jon cut the paper,Sensible,edin_semantics,emo_sem_emo_sem,2.18485051800963,1,2,2,1,605900.159150447,20,B
23,3,26/8/94,21,f,29,Tim ate the ham,Sensible,edin_semantics,emo_sem_emo_sem,2.27863275061827,2,1,1,1,605903.18174946,67,B
23,3,26/8/94,21,f,30,Carl sold the sofa,Sensible,edin_semantics,emo_sem_emo_sem,1.78467450593598,1,2,2,1,605905.710398247,38,B
23,3,26/8/94,21,f,31,Phil chopped the herbs,Sensible,edin_semantics,emo_sem_emo_sem,1.61966992600355,2,1,1,1,605908.074376004,27,B
23,3,26/8/94,21,f,32,Matt drank the juice,Sensible,edin_semantics,emo_sem_emo_sem,1.0668387231417,1,2,2,1,605909.885665921,60,B
23,3,26/8/94,21,f,33,Ewan wrote the story,Sensible,edin_semantics,emo_sem_emo_sem,0.902189502958208,2,2,2,1,605911.532153313,74,B
23,3,26/8/94,21,f,34,Mary visited the museum,Sensible,edin_semantics,emo_sem_emo_sem,1.67867598379962,1,2,2,1,605913.955015254,16,B
23,3,26/8/94,21,f,35,The carrots chopped Fred,Non-sensible,edin_semantics,emo_sem_emo_sem,3.20768750668503,1,2,2,1,605917.906714245,102,B
23,3,26/8/94,21,f,36,Kate served the dish,Sensible,edin_semantics,emo_sem_emo_sem,5.60687633731868,1,2,2,1,605924.257740297,70,B
23,3,26/8/94,21,f,37,Joe solved the puzzle,Sensible,edin_semantics,emo_sem_emo_sem,2.45463006675709,1,2,2,1,605927.456788845,34,B
23,3,26/8/94,21,f,38,The house dusted Alex,Non-sensible,edin_semantics,emo_sem_emo_sem,0.878671622020192,1,2,2,1,605929.079843347,122,B
23,3,26/8/94,21,f,39,The wallet carried Leo,Non-sensible,edin_semantics,emo_sem_emo_sem,4.78282362106256,2,2,2,1,605934.607606621,150,B
23,3,26/8/94,21,f,40,Ben chewed the toffee,Sensible,edin_semantics,emo_sem_emo_sem,4.26605244178791,2,1,1,1,605939.617875167,31,B
23,3,26/8/94,21,f,41,Tim pulled the handle,Sensible,edin_semantics,emo_sem_emo_sem,1.58426802325994,2,1,1,1,605941.946593422,73,B
23,3,26/8/94,21,f,42,The shoes counted Lucy,Non-sensible,edin_semantics,emo_sem_emo_sem,1.19643081654795,1,1,1,1,605943.887168823,123,B
23,3,26/8/94,21,f,43,The invite mailed Ian,Non-sensible,edin_semantics,emo_sem_emo_sem,2.28995583020151,2,1,1,1,605946.921543454,89,B
23,3,26/8/94,21,f,44,Leah sucked the lolly,Sensible,edin_semantics,emo_sem_emo_sem,1.47838175378274,1,2,2,1,605949.144373194,12,B
23,3,26/8/94,21,f,45,Will mashed the potatoes,Sensible,edin_semantics,emo_sem_emo_sem,1.58405281906016,1,2,2,1,605951.473105561,28,B
23,3,26/8/94,21,f,46,Liz labeled the jar,Sensible,edin_semantics,emo_sem_emo_sem,1.30225197947584,1,1,1,1,605953.519566269,61,B
23,3,26/8/94,21,f,47,The ribbon cut Lucy,Non-sensible,edin_semantics,emo_sem_emo_sem,2.01991457259282,1,1,1,1,605956.283424974,95,B
23,3,26/8/94,21,f,48,The curtains measured Rob,Non-sensible,edin_semantics,emo_sem_emo_sem,1.42010501702316,1,2,2,1,605958.447488236,126,B
23,3,26/8/94,21,f,49,Tom knitted the scarf,Sensible,edin_semantics,emo_sem_emo_sem,2.19600457733031,1,2,2,1,605961.387760554,66,B
23,3,26/8/94,21,f,50,The shed built Rose,Non-sensible,edin_semantics,emo_sem_emo_sem,4.7715826460626,2,1,1,1,605966.903770019,121,B
23,3,26/8/94,21,f,51,The rope pulled Andy,Non-sensible,edin_semantics,emo_sem_emo_sem,4.61859711201396,1,2,2,1,605972.266839172,148,B
23,3,26/8/94,21,f,52,The report wrote Alex,Non-sensible,edin_semantics,emo_sem_emo_sem,1.02007365052123,1,1,1,1,605974.031016033,149,B
23,3,26/8/94,21,f,53,The door kicked Max,Non-sensible,edin_semantics,emo_sem_emo_sem,1.96118882554583,2,2,2,1,605976.73609928,114,B
23,3,26/8/94,21,f,54,The dress wore Kate,Non-sensible,edin_semantics,emo_sem_emo_sem,3.03124374593608,2,2,2,1,605980.511451368,100,B
23,3,26/8/94,21,f,55,Dan carried the folder,Sensible,edin_semantics,emo_sem_emo_sem,1.49057302705478,1,2,2,1,605982.74607148,30,B
23,3,26/8/94,21,f,56,The rules taught Josh,Non-sensible,edin_semantics,emo_sem_emo_sem,1.02022855915129,1,2,2,1,605984.510229739,90,B
23,3,26/8/94,21,f,57,Rob mailed the parcel,Sensible,edin_semantics,emo_sem_emo_sem,0.856022255495191,1,2,2,1,605986.109796508,14,B
23,3,26/8/94,21,f,58,Jon polished the coins,Sensible,edin_semantics,emo_sem_emo_sem,8.37151856592391,2,1,1,1,605995.224680305,29,B
23,3,26/8/94,21,f,59,The candy sucked Sam,Non-sensible,edin_semantics,emo_sem_emo_sem,1.51403638522606,1,1,1,1,605997.482796167,87,B
23,3,26/8/94,21,f,60,Joe wore the jumper,Sensible,edin_semantics,emo_sem_emo_sem,0.996216766769066,1,1,1,1,605999.223438791,25,B
23,3,26/8/94,21,f,61,The hotline dialed Hugh,Non-sensible,edin_semantics,emo_sem_emo_sem,1.98456334380899,2,2,2,1,606001.952047616,138,B
23,3,26/8/94,21,f,62,Tom dialed the number,Sensible,edin_semantics,emo_sem_emo_sem,1.0783106177114,2,1,1,1,606003.775043233,63,B
23,3,26/8/94,21,f,63,Hugh pulled the lever,Sensible,edin_semantics,emo_sem_emo_sem,1.44371686945669,2,1,1,1,606005.962588455,45,B
23,3,26/8/94,21,f,64,The gift posted Jack,Non-sensible,edin_semantics,emo_sem_emo_sem,1.2675473256968,2,1,1,1,606007.973755343,111,B
23,3,26/8/94,21,f,65,The car lent Fred,Non-sensible,edin_semantics,emo_sem_emo_sem,1.23220058705192,1,2,2,1,606009.949644127,94,B
23,3,26/8/94,21,f,66,The monitor punched Erin,Non-sensible,edin_semantics,emo_sem_emo_sem,1.3972863095114,1,1,1,1,606012.09020362,125,B
23,3,26/8/94,21,f,67,Rob stroked the fur,Sensible,edin_semantics,emo_sem_emo_sem,1.10298437962774,1,1,1,1,606013.936657464,41,B
23,3,26/8/94,21,f,68,Jen fixed the laptop,Sensible,edin_semantics,emo_sem_emo_sem,4.07872082071844,1,1,1,1,606018.758747043,37,B
23,3,26/8/94,21,f,69,Matt offered the money,Sensible,edin_semantics,emo_sem_emo_sem,1.13713995786384,1,1,1,1,606020.640680725,9,B
23,3,26/8/94,21,f,70,Leo stored the wine,Sensible,edin_semantics,emo_sem_emo_sem,3.50279059947934,1,2,2,1,606024.88631859,52,B
23,3,26/8/94,21,f,71,The radio got Ben,Non-sensible,edin_semantics,emo_sem_emo_sem,1.36141454952303,2,2,2,1,606026.991557643,88,B
23,3,26/8/94,21,f,72,Mike paid the bill,Sensible,edin_semantics,emo_sem_emo_sem,2.14980846503749,2,1,1,1,606029.884843911,59,B
23,3,26/8/94,21,f,73,The socks knitted Ryan,Non-sensible,edin_semantics,emo_sem_emo_sem,5.51297255139798,2,1,1,1,606036.141762199,141,B
23,3,26/8/94,21,f,74,Eve taught the lesson,Sensible,edin_semantics,emo_sem_emo_sem,0.867322243168019,1,1,1,1,606037.753032424,15,B
23,3,26/8/94,21,f,75,The dessert served Fred,Non-sensible,edin_semantics,emo_sem_emo_sem,0.902457305579446,1,1,1,1,606039.399598072,145,B
23,3,26/8/94,21,f,76,Ryan entered the room,Sensible,edin_semantics,emo_sem_emo_sem,1.29030894476455,2,2,2,1,606041.434275464,58,B
23,3,26/8/94,21,f,77,Beth wiped the table,Sensible,edin_semantics,emo_sem_emo_sem,1.04319191223476,2,2,2,1,606043.222006127,40,B
23,3,26/8/94,21,f,78,Dan whisked the eggs,Sensible,edin_semantics,emo_sem_emo_sem,1.94933783798479,2,2,2,1,606045.915294833,62,B
23,3,26/8/94,21,f,79,The message typed Eve,Non-sensible,edin_semantics,emo_sem_emo_sem,4.90098070271779,2,2,2,1,606051.560694016,124,B
23,3,26/8/94,21,f,80,The report filed Ian,Non-sensible,edin_semantics,emo_sem_emo_sem,2.36047675926238,1,1,1,1,606054.665602726,99,B
23,3,26/8/94,21,f,81,The pot scrubbed Josh,Non-sensible,edin_semantics,emo_sem_emo_sem,0.949496915913187,1,1,1,1,606056.359203815,131,B
23,3,26/8/94,21,f,82,The pan washed Beth,Non-sensible,edin_semantics,emo_sem_emo_sem,2.31388070690446,2,2,2,1,606059.417141869,132,B
23,3,26/8/94,21,f,83,The hair trimmed Bill,Non-sensible,edin_semantics,emo_sem_emo_sem,1.41964381921571,1,1,1,1,606061.581185246,107,B
23,3,26/8/94,21,f,84,Ryan painted the picture,Sensible,edin_semantics,emo_sem_emo_sem,0.867217367282137,1,1,1,1,606063.192484015,35,B
23,3,26/8/94,21,f,85,The bed sold Jay,Non-sensible,edin_semantics,emo_sem_emo_sem,2.50174504669849,2,1,1,1,606066.438522781,113,B
23,3,26/8/94,21,f,86,The stairs climbed Ben,Non-sensible,edin_semantics,emo_sem_emo_sem,2.30192901275586,1,1,1,1,606069.484694519,143,B
23,3,26/8/94,21,f,87,The rose kissed Hugh,Non-sensible,edin_semantics,emo_sem_emo_sem,1.34948979597539,2,2,2,1,606071.578189064,98,B
23,3,26/8/94,21,f,88,Lily dented the lorry,Sensible,edin_semantics,emo_sem_emo_sem,1.01965991943143,2,1,1,1,606073.342353417,71,B
23,3,26/8/94,21,f,89,The garage tidied Erin,Non-sensible,edin_semantics,emo_sem_emo_sem,1.26685905701015,1,1,1,1,606075.353516778,77,B
23,3,26/8/94,21,f,90,The rice stored Fred,Non-sensible,edin_semantics,emo_sem_emo_sem,2.84274469793309,2,1,1,1,606078.940674503,127,B
23,3,26/8/94,21,f,91,The poster read Luke,Non-sensible,edin_semantics,emo_sem_emo_sem,1.30164100474212,2,1,1,1,606080.987096404,79,B
23,3,26/8/94,21,f,92,The hair brushed Dan,Non-sensible,edin_semantics,emo_sem_emo_sem,0.996614461648278,1,1,1,1,606082.727764364,147,B
23,3,26/8/94,21,f,93,Erin crushed the garlic,Sensible,edin_semantics,emo_sem_emo_sem,1.16151095833629,2,2,2,1,606084.633126767,6,B
23,3,26/8/94,21,f,94,Phil sniffed the milk,Sensible,edin_semantics,emo_sem_emo_sem,4.10208539664745,1,2,2,1,606089.478645708,18,B
23,3,26/8/94,21,f,95,Beth took the photo,Sensible,edin_semantics,emo_sem_emo_sem,2.09047559171449,1,1,1,1,606092.313120917,53,B
23,3,26/8/94,21,f,96,Josh ironed the shirt,Sensible,edin_semantics,emo_sem_emo_sem,5.91316331666894,1,1,1,1,606098.969964733,55,B
23,3,26/8/94,21,f,97,Matt kicked the bike,Sensible,edin_semantics,emo_sem_emo_sem,4.40747211000416,2,1,1,1,606104.121327095,39,B
23,3,26/8/94,21,f,98,Kate lifted the box,Sensible,edin_semantics,emo_sem_emo_sem,2.94945522211492,1,1,1,1,606107.814362752,69,B
23,3,26/8/94,21,f,99,Tim cleaned the floor,Sensible,edin_semantics,emo_sem_emo_sem,3.11382060369942,2,1,1,1,606111.672032555,5,B
23,3,26/8/94,21,f,100,Carl brushed the teeth,Sensible,edin_semantics,emo_sem_emo_sem,2.72540513554122,1,2,2,1,606115.141543467,72,B
23,3,26/8/94,21,f,101,The lemon squeezed Jay,Non-sensible,edin_semantics,emo_sem_emo_sem,2.36108484759461,1,2,2,1,606118.246491305,76,B
23,3,26/8/94,21,f,102,The church described Erin,Non-sensible,edin_semantics,emo_sem_emo_sem,1.43175170489121,1,1,1,1,606120.422309979,117,B
23,3,26/8/94,21,f,103,Matt pushed the trolley,Sensible,edin_semantics,emo_sem_emo_sem,1.30235461040866,1,2,2,1,606122.468760103,26,B
23,3,26/8/94,21,f,104,The hospital visited Tom,Non-sensible,edin_semantics,emo_sem_emo_sem,1.05515579378698,2,1,1,1,606124.268216672,91,B
23,3,26/8/94,21,f,105,The rope pulled Emma,Non-sensible,edin_semantics,emo_sem_emo_sem,1.78384832676966,1,2,2,1,606126.796865138,120,B
23,3,26/8/94,21,f,106,Ryan carried the gun,Sensible,edin_semantics,emo_sem_emo_sem,1.04297702864278,1,1,1,1,606128.584565332,75,B
23,3,26/8/94,21,f,107,The radio fixed Luke,Non-sensible,edin_semantics,emo_sem_emo_sem,0.902336072758771,1,2,2,1,606130.231120717,112,B
23,3,26/8/94,21,f,108,The fat chewed Adam,Non-sensible,edin_semantics,emo_sem_emo_sem,1.83085971383844,1,2,2,1,606132.806840866,106,B
23,3,26/8/94,21,f,109,The trousers ironed Eve,Non-sensible,edin_semantics,emo_sem_emo_sem,6.3945479876129,2,2,2,1,606139.945853838,130,B
23,3,26/8/94,21,f,110,The kettle carried John,Non-sensible,edin_semantics,emo_sem_emo_sem,1.52527126646601,1,1,1,1,606142.215753337,105,B
23,3,26/8/94,21,f,111,Jon jumped the fence,Sensible,edin_semantics,emo_sem_emo_sem,3.07436734437943,2,1,1,1,606146.026413036,17,B
23,3,26/8/94,21,f,112,Bill counted the sheets,Sensible,edin_semantics,emo_sem_emo_sem,1.49015961680561,1,2,2,1,606148.261005565,48,B
23,3,26/8/94,21,f,113,The salt passed Leo,Non-sensible,edin_semantics,emo_sem_emo_sem,2.05489761277568,2,2,2,1,606151.060146544,118,B
23,3,26/8/94,21,f,114,Liz scrubbed the bowl,Sensible,edin_semantics,emo_sem_emo_sem,1.47840837365948,2,2,2,1,606153.283032732,56,B
23,3,26/8/94,21,f,115,The beer drank Jack,Non-sensible,edin_semantics,emo_sem_emo_sem,3.54832121427171,1,1,1,1,606157.575862228,135,B
23,3,26/8/94,21,f,116,Kate built the house,Sensible,edin_semantics,emo_sem_emo_sem,3.03109172382392,2,2,2,1,606161.351194111,46,B
23,3,26/8/94,21,f,117,The box labeled Ian,Non-sensible,edin_semantics,emo_sem_emo_sem,1.60815826198086,2,2,2,1,606163.703405872,136,B
23,3,26/8/94,21,f,118,Jon trimmed the bushes,Sensible,edin_semantics,emo_sem_emo_sem,0.902364296256565,2,2,2,1,606165.350028608,32,B
23,3,26/8/94,21,f,119,Max kissed the mirror,Sensible,edin_semantics,emo_sem_emo_sem,3.70153381943237,2,1,1,1,606169.795718878,23,B
23,3,26/8/94,21,f,120,The gum swallowed Owen,Non-sensible,edin_semantics,emo_sem_emo_sem,3.65409458975773,2,1,1,1,606174.19439712,97,B
23,3,26/8/94,21,f,121,The onion sliced Liam,Non-sensible,edin_semantics,emo_sem_emo_sem,1.99590951541904,1,2,2,1,606176.934731851,78,B
23,3,26/8/94,21,f,122,Sam tidied the room,Sensible,edin_semantics,emo_sem_emo_sem,2.86612338549457,1,2,2,1,606180.545472564,2,B
23,3,26/8/94,21,f,123,Andy grated the cheese,Sensible,edin_semantics,emo_sem_emo_sem,2.95997264888138,1,1,1,1,606184.250195961,65,B
23,3,26/8/94,21,f,124,The perfume sniffed Tim,Non-sensible,edin_semantics,emo_sem_emo_sem,1.71379982086364,2,1,1,1,606186.708304255,93,B
23,3,26/8/94,21,f,125,The steak ate Mike,Non-sensible,edin_semantics,emo_sem_emo_sem,0.855013265041634,1,2,2,1,606188.307777373,142,B
23,3,26/8/94,21,f,126,Max lent the bucket,Sensible,edin_semantics,emo_sem_emo_sem,1.52554420055822,2,1,1,1,606190.577681682,19,B
23,3,26/8/94,21,f,127,The opera watched Adam,Non-sensible,edin_semantics,emo_sem_emo_sem,1.031565109035,1,2,2,1,606192.353655971,108,B
23,3,26/8/94,21,f,128,John described the pen,Sensible,edin_semantics,emo_sem_emo_sem,4.2424152524909,1,2,2,1,606197.340361736,42,B
23,3,26/8/94,21,f,129,Ian cancelled the plans,Sensible,edin_semantics,emo_sem_emo_sem,7.84117508586496,2,1,1,1,606205.92602586,7,B
23,3,26/8/94,21,f,130,Mark washed the dishes,Sensible,edin_semantics,emo_sem_emo_sem,0.94927754229866,2,1,1,1,606207.619625987,57,B
23,3,26/8/94,21,f,131,Lily got the kettle,Sensible,edin_semantics,emo_sem_emo_sem,1.16069440089632,2,1,1,1,606209.52493066,13,B
23,3,26/8/94,21,f,132,Erin posted the card,Sensible,edin_semantics,emo_sem_emo_sem,1.10204113705549,1,2,1,0,606211.37144929,36,B
23,3,26/8/94,21,f,133,Jen searched the room,Sensible,edin_semantics,emo_sem_emo_sem,1.0900044515729,1,2,2,1,606213.206176266,10,B
23,3,26/8/94,21,f,134,Jane punched the wall,Sensible,edin_semantics,emo_sem_emo_sem,2.84257952624466,1,2,2,1,606216.793336558,50,B
23,3,26/8/94,21,f,135,The turnip mashed Ella,Non-sensible,edin_semantics,emo_sem_emo_sem,2.94837535207625,2,1,1,1,606220.486375421,103,B
23,3,26/8/94,21,f,136,Josh squeezed the ball,Sensible,edin_semantics,emo_sem_emo_sem,2.24282673851121,2,1,1,1,606223.473700179,1,B
23,3,26/8/94,21,f,137,Luke climbed the hill,Sensible,edin_semantics,emo_sem_emo_sem,1.11398192669731,2,2,2,1,606225.332007577,68,B
23,3,26/8/94,21,f,138,Ella watched the movie,Sensible,edin_semantics,emo_sem_emo_sem,2.53686920448672,1,1,1,1,606228.613338238,33,B
23,3,26/8/94,21,f,139,Amy hugged the tree,Sensible,edin_semantics,emo_sem_emo_sem,1.90146563400049,1,1,1,1,606231.259574184,11,B
23,3,26/8/94,21,f,140,The blanket stroked Ryan,Non-sensible,edin_semantics,emo_sem_emo_sem,1.03096439735964,1,2,2,1,606233.035532116,116,B
23,3,26/8/94,21,f,141,Phil passed the towels,Sensible,edin_semantics,emo_sem_emo_sem,2.23141064948868,2,1,1,1,606236.011092481,43,B
23,3,26/8/94,21,f,142,Lara filed the papers,Sensible,edin_semantics,emo_sem_emo_sem,1.23149788577575,2,2,2,1,606237.986984793,24,B
23,3,26/8/94,21,f,143,The trophy polished Anna,Non-sensible,edin_semantics,emo_sem_emo_sem,0.925280823954381,2,2,2,1,606239.657066397,104,B
23,3,26/8/94,21,f,144,Jake dusted the shelf,Sensible,edin_semantics,emo_sem_emo_sem,1.78431529761292,1,1,1,1,606242.185711335,47,B
23,3,26/8/94,21,f,145,The plate licked Jane,Non-sensible,edin_semantics,emo_sem_emo_sem,1.03112379601225,1,2,2,1,606243.961682096,96,B
23,3,26/8/94,21,f,146,Jen weighed the flour,Sensible,edin_semantics,emo_sem_emo_sem,1.47815724858083,2,2,2,1,606246.184506704,64,B
23,3,26/8/94,21,f,147,Amy measured the thread,Sensible,edin_semantics,emo_sem_emo_sem,0.91375440673437,2,1,1,1,606247.842846046,51,B
23,3,26/8/94,21,f,148,The cream whisked Tom,Non-sensible,edin_semantics,emo_sem_emo_sem,1.5726954221027,1,1,1,1,606250.159841602,137,B
23,3,26/8/94,21,f,149,The bath cleaned Jack,Non-sensible,edin_semantics,emo_sem_emo_sem,1.03164753457531,1,2,2,1,606251.935777083,80,B
23,3,26/8/94,21,f,150,The bowl dented Ian,Non-sensible,edin_semantics,emo_sem_emo_sem,2.06624089798424,1,2,2,1,606254.746687907,146,B
23,3,26/8/94,21,f,24,Zoe paid the debt,Sensible,edin_semantics,emo_sem_emo_sem,2.18852278159466,2,1,1,1,606274.340772901,134,A
23,3,26/8/94,21,f,25,Luke watered the plants,Sensible,edin_semantics,emo_sem_emo_sem,1.07498280936852,1,2,2,1,606276.16372939,129,A
23,3,26/8/94,21,f,26,The tree hugged Amy,Non-sensible,edin_semantics,emo_sem_emo_sem,1.10214376798831,1,2,2,1,606278.010233588,11,A
23,3,26/8/94,21,f,27,Rose built the shed,Sensible,edin_semantics,emo_sem_emo_sem,0.830969721311703,1,2,2,1,606279.586233727,121,A
23,3,26/8/94,21,f,28,Josh crushed the ice,Sensible,edin_semantics,emo_sem_emo_sem,1.81949109153356,2,2,2,1,606282.15018403,81,A
23,3,26/8/94,21,f,29,Ian mailed the invite,Sensible,edin_semantics,emo_sem_emo_sem,1.20746011508163,2,2,2,1,606284.102520616,89,A
23,3,26/8/94,21,f,30,The shelf dusted Jake,Non-sensible,edin_semantics,emo_sem_emo_sem,3.61874817195348,2,2,2,1,606288.465951864,47,A
23,3,26/8/94,21,f,31,Fred lent the car,Sensible,edin_semantics,emo_sem_emo_sem,1.01966633391567,2,1,1,1,606290.230101784,94,A
23,3,26/8/94,21,f,32,The folder carried Dan,Non-sensible,edin_semantics,emo_sem_emo_sem,2.90120873600245,1,1,1,1,606293.876076984,30,A
23,3,26/8/94,21,f,33,The book read Sean,Non-sensible,edin_semantics,emo_sem_emo_sem,3.54824776900932,2,1,1,1,606298.168896217,4,A
23,3,26/8/94,21,f,34,The fence jumped Jon,Non-sensible,edin_semantics,emo_sem_emo_sem,3.84165809268598,2,2,2,1,606302.75576401,17,A
23,3,26/8/94,21,f,35,Tom visited the hospital,Sensible,edin_semantics,emo_sem_emo_sem,1.21938711369876,2,2,2,1,606304.719864027,91,A
23,3,26/8/94,21,f,36,Tom whisked the cream,Sensible,edin_semantics,emo_sem_emo_sem,3.03056445741095,1,2,2,1,606308.495213229,137,A
23,3,26/8/94,21,f,37,The picture painted Ryan,Non-sensible,edin_semantics,emo_sem_emo_sem,0.97192466375418,1,2,2,1,606310.212349517,35,A
23,3,26/8/94,21,f,38,Erin described the church,Sensible,edin_semantics,emo_sem_emo_sem,2.90104516793508,1,2,2,1,606313.858321509,117,A
23,3,26/8/94,21,f,39,Phil solved the problem,Sensible,edin_semantics,emo_sem_emo_sem,9.14647071424406,1,2,2,1,606323.749494222,109,A
23,3,26/8/94,21,f,40,The ham ate Tim,Non-sensible,edin_semantics,emo_sem_emo_sem,4.8419396863319,2,2,2,1,606329.336006335,67,A
23,3,26/8/94,21,f,41,The number dialed Tom,Non-sensible,edin_semantics,emo_sem_emo_sem,2.50118859461509,1,2,2,1,606332.582077494,63,A
23,3,26/8/94,21,f,42,The story wrote Ewan,Non-sensible,edin_semantics,emo_sem_emo_sem,2.13652160635684,2,1,1,1,606335.463578202,74,A
23,3,26/8/94,21,f,43,The wall punched Jane,Non-sensible,edin_semantics,emo_sem_emo_sem,1.40761258616112,1,1,1,1,606337.615851734,50,A
23,3,26/8/94,21,f,44,The eggs whisked Dan,Non-sensible,edin_semantics,emo_sem_emo_sem,1.36052647104952,1,1,1,1,606339.721132481,62,A
23,3,26/8/94,21,f,45,The museum visited Mary,Non-sensible,edin_semantics,emo_sem_emo_sem,0.949128085980192,2,1,1,1,606341.414744475,16,A
23,3,26/8/94,21,f,46,The jumper wore Joe,Non-sensible,edin_semantics,emo_sem_emo_sem,1.23043693846557,2,2,2,1,606343.390615298,25,A
23,3,26/8/94,21,f,47,Lucy counted the shoes,Sensible,edin_semantics,emo_sem_emo_sem,1.50137461314444,1,2,2,1,606345.636995633,123,A
23,3,26/8/94,21,f,48,The movie watched Ella,Non-sensible,edin_semantics,emo_sem_emo_sem,0.901412073522806,1,2,2,1,606347.283575713,33,A
23,3,26/8/94,21,f,49,Ian pushed the button,Sensible,edin_semantics,emo_sem_emo_sem,0.842667083255947,1,2,2,1,606348.871288929,101,A
23,3,26/8/94,21,f,50,Jay squeezed the lemon,Sensible,edin_semantics,emo_sem_emo_sem,1.78379701136146,2,1,1,1,606351.399945734,76,A
23,3,26/8/94,21,f,51,The dish served Kate,Non-sensible,edin_semantics,emo_sem_emo_sem,3.35999663884286,2,1,1,1,606355.504616147,70,A
23,3,26/8/94,21,f,52,The potatoes mashed Will,Non-sensible,edin_semantics,emo_sem_emo_sem,1.51313355367165,2,1,1,1,606357.762749329,28,A
23,3,26/8/94,21,f,53,The mirror kissed Max,Non-sensible,edin_semantics,emo_sem_emo_sem,1.11398320959415,2,2,2,1,606359.621049029,23,A
23,3,26/8/94,21,f,54,The jar labeled Liz,Non-sensible,edin_semantics,emo_sem_emo_sem,0.901994183310308,2,2,2,1,606361.267601207,61,A
23,3,26/8/94,21,f,55,The table wiped Beth,Non-sensible,edin_semantics,emo_sem_emo_sem,3.26579297799617,1,1,1,1,606365.278219661,40,A
23,3,26/8/94,21,f,56,The juice drank Matt,Non-sensible,edin_semantics,emo_sem_emo_sem,1.85428650968242,1,1,1,1,606367.87735089,60,A
23,3,26/8/94,21,f,57,The towels passed Phil,Non-sensible,edin_semantics,emo_sem_emo_sem,1.28963222203311,1,2,2,1,606369.912043036,43,A
23,3,26/8/94,21,f,58,Kate hugged the pillow,Sensible,edin_semantics,emo_sem_emo_sem,0.796190660097636,1,1,1,1,606371.452814782,86,A
23,3,26/8/94,21,f,59,The cheese grated Andy,Non-sensible,edin_semantics,emo_sem_emo_sem,0.925196474068798,2,2,2,1,606373.122852447,65,A
23,3,26/8/94,21,f,60,The puzzle solved Joe,Non-sensible,edin_semantics,emo_sem_emo_sem,1.137167219189,2,1,1,1,606375.004682537,34,A
23,3,26/8/94,21,f,61,Josh taught the rules,Sensible,edin_semantics,emo_sem_emo_sem,1.53684098098893,1,1,1,1,606377.286294471,90,A
23,3,26/8/94,21,f,62,Luke fixed the radio,Sensible,edin_semantics,emo_sem_emo_sem,3.57142504351214,1,1,1,1,606381.602650829,112,A
23,3,26/8/94,21,f,63,Emma pulled the rope,Sensible,edin_semantics,emo_sem_emo_sem,1.94817201467231,2,1,1,1,606384.295969683,120,A
23,3,26/8/94,21,f,64,Tom offered the sweets,Sensible,edin_semantics,emo_sem_emo_sem,1.44299235916696,2,1,1,1,606386.483544411,84,A
23,3,26/8/94,21,f,65,Tim took the ticket,Sensible,edin_semantics,emo_sem_emo_sem,3.300866140984,2,1,1,1,606390.529367524,128,A
23,3,26/8/94,21,f,66,The fruits mixed Jack,Non-sensible,edin_semantics,emo_sem_emo_sem,3.24201595399063,1,1,1,1,606394.516407481,8,A
23,3,26/8/94,21,f,67,Lucy wiped the desk,Sensible,edin_semantics,emo_sem_emo_sem,1.40746697841678,2,2,2,1,606396.668714368,115,A
23,3,26/8/94,21,f,68,The ball squeezed Josh,Non-sensible,edin_semantics,emo_sem_emo_sem,2.46551696490496,1,2,2,1,606399.879516403,1,A
23,3,26/8/94,21,f,69,Ella mashed the turnip,Sensible,edin_semantics,emo_sem_emo_sem,1.13700076460373,2,2,2,1,606401.761304478,103,A
23,3,26/8/94,21,f,70,The kettle got Lily,Non-sensible,edin_semantics,emo_sem_emo_sem,2.97164980520029,1,2,2,1,606405.477871165,13,A
23,3,26/8/94,21,f,71,Jay painted the portrait,Sensible,edin_semantics,emo_sem_emo_sem,1.03090153587982,1,1,1,1,606407.253771046,110,A
23,3,26/8/94,21,f,72,Phil cancelled the party,Sensible,edin_semantics,emo_sem_emo_sem,2.06645642290823,1,1,1,1,606410.064712338,82,A
23,3,26/8/94,21,f,73,The teeth brushed Carl,Non-sensible,edin_semantics,emo_sem_emo_sem,4.27702785923611,2,1,1,1,606415.086726034,72,A
23,3,26/8/94,21,f,74,The paper cut Jon,Non-sensible,edin_semantics,emo_sem_emo_sem,1.19544299365953,2,1,1,1,606417.027308811,20,A
23,3,26/8/94,21,f,75,The laptop fixed Jen,Non-sensible,edin_semantics,emo_sem_emo_sem,1.06650324829388,2,2,2,1,606418.838540036,37,A
23,3,26/8/94,21,f,76,Leo carried the wallet,Sensible,edin_semantics,emo_sem_emo_sem,1.66653762967326,2,1,1,1,606421.249589156,150,A
23,3,26/8/94,21,f,77,The scarf knitted Tom,Non-sensible,edin_semantics,emo_sem_emo_sem,0.890322158578783,2,1,1,1,606422.884355452,66,A
23,3,26/8/94,21,f,78,Tim sniffed the perfume,Sensible,edin_semantics,emo_sem_emo_sem,1.12516869953834,1,2,2,1,606424.7543817,93,A
23,3,26/8/94,21,f,79,Jack posted the gift,Sensible,edin_semantics,emo_sem_emo_sem,1.5608402651269,1,2,2,1,606427.059568604,111,A
23,3,26/8/94,21,f,80,Sam sucked the candy,Sensible,edin_semantics,emo_sem_emo_sem,1.38365275075193,1,2,2,1,606429.188335159,87,A
23,3,26/8/94,21,f,81,The parcel mailed Rob,Non-sensible,edin_semantics,emo_sem_emo_sem,0.937418857356533,1,1,1,1,606430.870238566,14,A
23,3,26/8/94,21,f,82,The house built Kate,Non-sensible,edin_semantics,emo_sem_emo_sem,1.21969628927764,1,1,1,1,606432.834322225,46,A
23,3,26/8/94,21,f,83,John carried the kettle,Sensible,edin_semantics,emo_sem_emo_sem,1.1603845837526,1,2,2,1,606434.739614069,105,A
23,3,26/8/94,21,f,84,Adam watched the opera,Sensible,edin_semantics,emo_sem_emo_sem,0.866495101945475,1,1,1,1,606436.350913159,108,A
23,3,26/8/94,21,f,85,Liam sliced the onion,Sensible,edin_semantics,emo_sem_emo_sem,0.949061055085622,2,1,1,1,606438.044529642,78,A
23,3,26/8/94,21,f,86,The gun carried Ryan,Non-sensible,edin_semantics,emo_sem_emo_sem,1.14907208806835,1,2,2,1,606439.938070564,75,A
23,3,26/8/94,21,f,87,The room searched Jen,Non-sensible,edin_semantics,emo_sem_emo_sem,2.14837580116,2,1,1,1,606442.831305196,10,A
23,3,26/8/94,21,f,88,Liz weighed the sugar,Sensible,edin_semantics,emo_sem_emo_sem,1.2431214817334,1,2,2,1,606444.818984993,139,A
23,3,26/8/94,21,f,89,Max searched the internet,Sensible,edin_semantics,emo_sem_emo_sem,1.13701166911051,2,2,2,1,606446.700731374,85,A
23,3,26/8/94,21,f,90,Andy pulled the rope,Sensible,edin_semantics,emo_sem_emo_sem,2.27794993412681,2,1,1,1,606449.723370156,148,A
23,3,26/8/94,21,f,91,The shirt ironed Josh,Non-sensible,edin_semantics,emo_sem_emo_sem,1.06667836231645,2,2,2,1,606451.53458759,55,A
23,3,26/8/94,21,f,92,Eve typed the message,Sensible,edin_semantics,emo_sem_emo_sem,0.937399293296039,1,1,1,1,606453.21643038,124,A
23,3,26/8/94,21,f,93,Ian filed the report,Sensible,edin_semantics,emo_sem_emo_sem,2.66621626645792,2,2,2,1,606456.627158136,99,A
23,3,26/8/94,21,f,94,The coins polished Jon,Non-sensible,edin_semantics,emo_sem_emo_sem,1.18392331153154,2,2,2,1,606458.556013404,29,A
23,3,26/8/94,21,f,95,Erin tidied the garage,Sensible,edin_semantics,emo_sem_emo_sem,0.84282263321802,1,2,2,1,606460.143747146,77,A
23,3,26/8/94,21,f,96,Owen swallowed the gum,Sensible,edin_semantics,emo_sem_emo_sem,0.795852619456127,1,2,2,1,606461.68447367,97,A
23,3,26/8/94,21,f,97,Hugh dialed the hotline,Sensible,edin_semantics,emo_sem_emo_sem,1.26580131670926,1,1,1,1,606463.695662688,138,A
23,3,26/8/94,21,f,98,The floor cleaned Tim,Non-sensible,edin_semantics,emo_sem_emo_sem,0.936831295257434,1,2,2,1,606465.377473085,5,A
23,3,26/8/94,21,f,99,The herbs chopped Phil,Non-sensible,edin_semantics,emo_sem_emo_sem,1.43067664583214,1,2,2,1,606467.553285666,27,A
23,3,26/8/94,21,f,100,The money offered Matt,Non-sensible,edin_semantics,emo_sem_emo_sem,4.08905126678292,1,2,2,1,606472.387182935,9,A
23,3,26/8/94,21,f,101,Fred served the dessert,Sensible,edin_semantics,emo_sem_emo_sem,1.05453840445261,1,2,2,1,606474.186683122,145,A
23,3,26/8/94,21,f,102,Hugh kissed the rose,Sensible,edin_semantics,emo_sem_emo_sem,1.80768853309564,1,1,1,1,606476.738775061,98,A
23,3,26/8/94,21,f,103,Alex wrote the report,Sensible,edin_semantics,emo_sem_emo_sem,11.4870059603127,2,2,2,1,606488.97044293,149,A
23,3,26/8/94,21,f,104,Amy lifted the crate,Sensible,edin_semantics,emo_sem_emo_sem,0.85465245321393,1,1,1,1,606490.569968005,144,A
23,3,26/8/94,21,f,105,Joe entered the office,Sensible,edin_semantics,emo_sem_emo_sem,0.925541891367175,2,2,2,1,606492.239989314,133,A
23,3,26/8/94,21,f,106,The lorry dented Lily,Non-sensible,edin_semantics,emo_sem_emo_sem,0.725446508731693,1,2,2,1,606493.710129482,71,A
23,3,26/8/94,21,f,107,Ian labeled the box,Sensible,edin_semantics,emo_sem_emo_sem,3.07767398504075,2,1,1,1,606497.532514766,136,A
23,3,26/8/94,21,f,108,The sheets counted Bill,Non-sensible,edin_semantics,emo_sem_emo_sem,0.84300801041536,2,1,1,1,606499.120272883,48,A
23,3,26/8/94,21,f,109,The bill paid Mike,Non-sensible,edin_semantics,emo_sem_emo_sem,0.984057565685362,2,2,2,1,606500.84918511,59,A
23,3,26/8/94,21,f,110,The dishes washed Mark,Non-sensible,edin_semantics,emo_sem_emo_sem,0.807733113295399,1,2,2,1,606502.401660312,57,A
23,3,26/8/94,21,f,111,Eve ironed the trousers,Sensible,edin_semantics,emo_sem_emo_sem,0.983971933019347,2,1,1,1,606504.130530204,130,A
23,3,26/8/94,21,f,112,The papers filed Lara,Non-sensible,edin_semantics,emo_sem_emo_sem,1.52520487701986,2,1,1,1,606506.400466265,24,A
23,3,26/8/94,21,f,113,The bucket lent Max,Non-sensible,edin_semantics,emo_sem_emo_sem,1.38397732109297,2,2,2,1,606508.529204277,19,A
23,3,26/8/94,21,f,114,Ben climbed the stairs,Sensible,edin_semantics,emo_sem_emo_sem,0.960993185290135,1,2,2,1,606510.234588681,143,A
23,3,26/8/94,21,f,115,Erin punched the monitor,Sensible,edin_semantics,emo_sem_emo_sem,1.07790586689953,2,2,2,1,606512.057649726,125,A
23,3,26/8/94,21,f,116,Dan brushed the hair,Sensible,edin_semantics,emo_sem_emo_sem,0.972008692799136,1,2,2,1,606513.774760677,147,A
23,3,26/8/94,21,f,117,Alex dusted the house,Sensible,edin_semantics,emo_sem_emo_sem,1.38381728099193,2,1,1,1,606515.90350382,122,A
23,3,26/8/94,21,f,118,The letter typed Phil,Non-sensible,edin_semantics,emo_sem_emo_sem,2.01895850128494,2,2,2,1,606518.667342641,49,A
23,3,26/8/94,21,f,119,The flour weighed Jen,Non-sensible,edin_semantics,emo_sem_emo_sem,1.10115786956158,1,1,1,1,606520.513865441,64,A
23,3,26/8/94,21,f,120,The handle pulled Tim,Non-sensible,edin_semantics,emo_sem_emo_sem,6.22987278900109,2,2,2,1,606527.488256775,73,A
23,3,26/8/94,21,f,121,The trolley pushed Matt,Non-sensible,edin_semantics,emo_sem_emo_sem,1.73667818272952,1,1,1,1,606529.969832596,26,A
23,3,26/8/94,21,f,122,Beth washed the pan,Sensible,edin_semantics,emo_sem_emo_sem,0.831420976785012,1,1,1,1,606531.54581734,132,A
23,3,26/8/94,21,f,123,The wine stored Leo,Non-sensible,edin_semantics,emo_sem_emo_sem,0.936849576304667,1,1,1,1,606533.227674883,52,A
23,3,26/8/94,21,f,124,Fred stored the rice,Sensible,edin_semantics,emo_sem_emo_sem,2.40838295966387,1,2,2,1,606536.379667784,127,A
23,3,26/8/94,21,f,125,The thread measured Amy,Non-sensible,edin_semantics,emo_sem_emo_sem,2.58416475099511,1,2,2,1,606539.708087126,51,A
23,3,26/8/94,21,f,126,Jack cleaned the bath,Sensible,edin_semantics,emo_sem_emo_sem,1.11391970666591,1,1,1,1,606541.566385864,80,A
23,3,26/8/94,21,f,127,The bowl scrubbed Liz,Non-sensible,edin_semantics,emo_sem_emo_sem,0.936864650342613,1,1,1,1,606543.248198506,56,A
23,3,26/8/94,21,f,128,The tomato sliced Liz,Non-sensible,edin_semantics,emo_sem_emo_sem,1.18388803221751,1,2,2,1,606545.177045114,3,A
23,3,26/8/94,21,f,129,The fur stroked Rob,Non-sensible,edin_semantics,emo_sem_emo_sem,3.53637016168796,1,2,2,1,606549.458101879,41,A
23,3,26/8/94,21,f,130,Rob measured the curtains,Sensible,edin_semantics,emo_sem_emo_sem,1.31335087469779,1,1,1,1,606551.516299077,126,A
23,3,26/8/94,21,f,131,Lucy cut the ribbon,Sensible,edin_semantics,emo_sem_emo_sem,1.46610645134933,1,2,2,1,606553.72741125,95,A
23,3,26/8/94,21,f,132,The room tidied Sam,Non-sensible,edin_semantics,emo_sem_emo_sem,1.97121779317968,2,1,1,1,606556.444242212,2,A
23,3,26/8/94,21,f,133,Ryan stroked the blanket,Sensible,edin_semantics,emo_sem_emo_sem,1.06670305784792,1,1,1,1,606558.255720392,116,A
23,3,26/8/94,21,f,134,The sofa sold Carl,Non-sensible,edin_semantics,emo_sem_emo_sem,1.55981972871814,2,1,1,1,606560.560664189,38,A
23,3,26/8/94,21,f,135,Anna polished the trophy,Sensible,edin_semantics,emo_sem_emo_sem,1.70141290733591,1,1,1,1,606563.00697249,104,A
23,3,26/8/94,21,f,136,Fred chopped the carrots,Sensible,edin_semantics,emo_sem_emo_sem,1.57169188396074,1,1,1,1,606565.323967084,102,A
23,3,26/8/94,21,f,137,Mike ate the steak,Sensible,edin_semantics,emo_sem_emo_sem,3.70085517235566,2,1,1,1,606569.769649015,142,A
23,3,26/8/94,21,f,138,Luke read the poster,Sensible,edin_semantics,emo_sem_emo_sem,2.87729508453049,2,2,2,1,606573.392077789,79,A
23,3,26/8/94,21,f,139,Joe iced the donut,Sensible,edin_semantics,emo_sem_emo_sem,1.57198341994081,1,2,2,1,606575.709046725,119,A
23,3,26/8/94,21,f,140,The cake iced Mary,Non-sensible,edin_semantics,emo_sem_emo_sem,1.34845578926615,1,1,1,1,606577.802529404,44,A
23,3,26/8/94,21,f,141,The milk sniffed Phil,Non-sensible,edin_semantics,emo_sem_emo_sem,3.38327397848479,2,1,1,1,606581.930705832,18,A
23,3,26/8/94,21,f,142,The spoon licked Will,Non-sensible,edin_semantics,emo_sem_emo_sem,1.80765036714729,1,2,2,1,606584.482864481,21,A
23,3,26/8/94,21,f,143,Jack drank the beer,Sensible,edin_semantics,emo_sem_emo_sem,1.13698376633693,2,2,2,1,606586.364665705,135,A
23,3,26/8/94,21,f,144,The lever pulled Hugh,Non-sensible,edin_semantics,emo_sem_emo_sem,4.0890512666665,1,2,2,1,606591.198513262,45,A
23,3,26/8/94,21,f,145,The hill climbed Luke,Non-sensible,edin_semantics,emo_sem_emo_sem,1.53701224643737,1,1,1,1,606593.480158873,68,A
23,3,26/8/94,21,f,146,The card posted Erin,Non-sensible,edin_semantics,emo_sem_emo_sem,2.30109160835855,2,1,1,1,606596.526313291,36,A
23,3,26/8/94,21,f,147,The bushes trimmed Jon,Non-sensible,edin_semantics,emo_sem_emo_sem,2.11286228720564,1,1,1,1,606599.384302533,32,A
23,3,26/8/94,21,f,148,Ryan knitted the socks,Sensible,edin_semantics,emo_sem_emo_sem,1.24269812903367,2,2,2,1,606601.371922034,141,A
23,3,26/8/94,21,f,149,The pen described John,Non-sensible,edin_semantics,emo_sem_emo_sem,3.20691809535492,2,1,1,1,606605.323681962,42,A
23,3,26/8/94,21,f,150,Max kicked the door,Sensible,edin_semantics,emo_sem_emo_sem,3.87722901580855,2,1,1,1,606609.945827218,114,A
23,3,26/8/94,21,f,151,The lolly sucked Leah,Non-sensible,edin_semantics,emo_sem_emo_sem,1.33656631503254,2,1,1,1,606612.027561219,12,A
23,3,26/8/94,21,f,152,Liam mixed the nuts,Sensible,edin_semantics,emo_sem_emo_sem,3.01853322423995,1,2,2,1,606615.791101448,83,A
23,3,26/8/94,21,f,153,The room entered Ryan,Non-sensible,edin_semantics,emo_sem_emo_sem,1.30111758690327,1,1,1,1,606617.83754612,58,A
23,3,26/8/94,21,f,154,Jay sold the bed,Sensible,edin_semantics,emo_sem_emo_sem,3.25403018889483,1,2,2,1,606621.83639088,113,A
23,3,26/8/94,21,f,155,Bill trimmed the hair,Sensible,edin_semantics,emo_sem_emo_sem,1.25481563631911,2,2,2,1,606623.835794979,107,A
23,3,26/8/94,21,f,156,Leo passed the salt,Sensible,edin_semantics,emo_sem_emo_sem,4.45365378982387,2,1,1,1,606629.034182198,118,A
23,3,26/8/94,21,f,157,The photo took Beth,Non-sensible,edin_semantics,emo_sem_emo_sem,1.38395839859732,1,2,2,1,606631.16297826,53,A
23,3,26/8/94,21,f,158,Josh scrubbed the pot,Sensible,edin_semantics,emo_sem_emo_sem,1.9486575871706,1,2,2,1,606633.856257024,131,A
23,3,26/8/94,21,f,159,Sara jumped the hedge,Sensible,edin_semantics,emo_sem_emo_sem,1.53654591704253,2,1,1,1,606636.137934706,92,A
23,3,26/8/94,21,f,160,Ben got the radio,Sensible,edin_semantics,emo_sem_emo_sem,1.45442223909777,2,1,1,1,606638.33728409,88,A
23,3,26/8/94,21,f,161,Ian dented the bowl,Sensible,edin_semantics,emo_sem_emo_sem,5.52357176202349,2,1,1,1,606644.605973506,146,A
23,3,26/8/94,21,f,162,The garden watered Jeff,Non-sensible,edin_semantics,emo_sem_emo_sem,1.84295028052293,1,1,1,1,606647.193451953,54,A
23,3,26/8/94,21,f,163,Tom grated the carrots,Sensible,edin_semantics,emo_sem_emo_sem,1.37237361003645,1,1,1,1,606649.310478491,140,A
23,3,26/8/94,21,f,164,Kate wore the dress,Sensible,edin_semantics,emo_sem_emo_sem,3.04220344789792,1,1,1,1,606653.097627686,100,A
23,3,26/8/94,21,f,165,The bike kicked Matt,Non-sensible,edin_semantics,emo_sem_emo_sem,6.60572815372143,2,2,2,1,606660.448314094,39,A
23,3,26/8/94,21,f,166,Adam chewed the fat,Sensible,edin_semantics,emo_sem_emo_sem,1.05440177710261,1,1,1,1,606662.24775559,106,A
23,3,26/8/94,21,f,167,Jane licked the plate,Sensible,edin_semantics,emo_sem_emo_sem,1.03115554747637,1,1,1,1,606664.023672148,96,A
23,3,26/8/94,21,f,168,The toffee chewed Ben,Non-sensible,edin_semantics,emo_sem_emo_sem,1.27812055801041,1,2,2,1,606666.046632294,31,A
23,3,26/8/94,21,f,169,The plans cancelled Ian,Non-sensible,edin_semantics,emo_sem_emo_sem,3.82984559168108,2,2,2,1,606670.621695604,7,A
23,3,26/8/94,21,f,170,The lesson taught Eve,Non-sensible,edin_semantics,emo_sem_emo_sem,0.807592957979068,1,2,2,1,606672.174175617,15,A
23,3,26/8/94,21,f,171,The pill swallowed Luke,Non-sensible,edin_semantics,emo_sem_emo_sem,0.94897285674233,1,1,1,1,606673.867807495,22,A
23,3,26/8/94,21,f,172,The box lifted Kate,Non-sensible,edin_semantics,emo_sem_emo_sem,3.47721176105551,2,2,2,1,606678.090057691,69,A
23,3,26/8/94,21,f,173,The garlic crushed Erin,Non-sensible,edin_semantics,emo_sem_emo_sem,1.30131386860739,1,1,1,1,606680.136484403,6,A
