subject_column,AssignedList_column,subject_dob_column,subject_age_column,subject_gender_column,trialnum_column,Stim_column,Type_column,Experiment_column,OrderGroup_column,ReactionTime_column,StimSide_column,StimPosition_column,Response_column,Valid_column,TrialEndSecs_column,PairID_column,List_column
24,4,13/5/94,21,f,1,Lily dented the lorry,Sensible,edin_semantics,sem_emo_sem_emo,1.2479877921287,1,1,1,1,610801.272874834,71,B
24,4,13/5/94,21,f,2,Mary visited the museum,Sensible,edin_semantics,sem_emo_sem_emo,1.19319409306627,1,2,2,1,610803.213477175,16,B
24,4,13/5/94,21,f,3,The stairs climbed Ben,Non-sensible,edin_semantics,sem_emo_sem_emo,1.17013003339525,1,1,1,1,610805.130542712,143,B
24,4,13/5/94,21,f,4,The report wrote Alex,Non-sensible,edin_semantics,sem_emo_sem_emo,1.26503158465493,2,1,1,1,610807.141788819,149,B
24,4,13/5/94,21,f,5,The shed built Rose,Non-sensible,edin_semantics,sem_emo_sem_emo,1.18491947324947,2,1,1,1,610809.070545945,121,B
24,4,13/5/94,21,f,6,The opera watched Adam,Non-sensible,edin_semantics,sem_emo_sem_emo,1.11408776487224,2,2,2,1,610810.92879882,108,B
24,4,13/5/94,21,f,7,John described the pen,Sensible,edin_semantics,sem_emo_sem_emo,1.54915541154332,1,2,2,1,610813.222239612,42,B
24,4,13/5/94,21,f,8,The donut iced Joe,Non-sensible,edin_semantics,sem_emo_sem_emo,1.42033048451412,1,1,1,1,610815.386276896,119,B
24,4,13/5/94,21,f,9,Jack mixed the fruits,Sensible,edin_semantics,sem_emo_sem_emo,1.2906396088656,2,2,2,1,610817.420996944,8,B
24,4,13/5/94,21,f,10,Erin crushed the garlic,Sensible,edin_semantics,sem_emo_sem_emo,1.06537013850175,2,2,2,1,610819.232193531,6,B
24,4,13/5/94,21,f,11,Amy hugged the tree,Sensible,edin_semantics,sem_emo_sem_emo,1.07867046748288,2,1,1,1,610821.05515868,11,B
24,4,13/5/94,21,f,12,Hugh pulled the lever,Sensible,edin_semantics,sem_emo_sem_emo,1.49081100255717,1,1,1,1,610823.289805732,45,B
24,4,13/5/94,21,f,13,The bowl dented Ian,Non-sensible,edin_semantics,sem_emo_sem_emo,1.52549545094371,2,2,2,1,610825.559691119,146,B
24,4,13/5/94,21,f,14,Bill counted the sheets,Sensible,edin_semantics,sem_emo_sem_emo,1.47897508891765,1,2,2,1,610827.782579231,48,B
24,4,13/5/94,21,f,15,Josh squeezed the ball,Sensible,edin_semantics,sem_emo_sem_emo,1.40801380889025,1,1,1,1,610829.934845707,1,B
24,4,13/5/94,21,f,16,Tom dialed the number,Sensible,edin_semantics,sem_emo_sem_emo,1.57315148843918,2,1,1,1,610832.251992965,63,B
24,4,13/5/94,21,f,17,The hospital visited Tom,Non-sensible,edin_semantics,sem_emo_sem_emo,1.59571297722869,2,1,1,1,610834.592288311,91,B
24,4,13/5/94,21,f,18,Joe wore the jumper,Sensible,edin_semantics,sem_emo_sem_emo,1.71441079583019,1,1,1,1,610837.050386341,25,B
24,4,13/5/94,21,f,19,The rope pulled Emma,Non-sensible,edin_semantics,sem_emo_sem_emo,1.29045679757837,2,2,2,1,610839.085065337,120,B
24,4,13/5/94,21,f,20,Jeff watered the garden,Sensible,edin_semantics,sem_emo_sem_emo,1.53719313349575,1,2,2,1,610841.366727304,54,B
24,4,13/5/94,21,f,21,The nuts mixed Liam,Non-sensible,edin_semantics,sem_emo_sem_emo,1.10233427665662,2,1,1,1,610843.213204882,83,B
24,4,13/5/94,21,f,22,The hedge jumped Sara,Non-sensible,edin_semantics,sem_emo_sem_emo,1.36109254485928,1,2,2,1,610845.318474725,92,B
24,4,13/5/94,21,f,23,The blanket stroked Ryan,Non-sensible,edin_semantics,sem_emo_sem_emo,1.325655041961,1,2,2,1,610847.388436636,116,B
24,4,13/5/94,21,f,24,The ribbon cut Lucy,Non-sensible,edin_semantics,sem_emo_sem_emo,1.40792657271959,1,1,1,1,610849.540790027,95,B
24,4,13/5/94,21,f,25,Ryan entered the room,Sensible,edin_semantics,sem_emo_sem_emo,1.03186690818984,1,2,2,1,610851.316719735,58,B
24,4,13/5/94,21,f,26,The garage tidied Erin,Non-sensible,edin_semantics,sem_emo_sem_emo,1.32569673587568,1,1,1,1,610853.386661762,77,B
24,4,13/5/94,21,f,27,The debt paid Zoe,Non-sensible,edin_semantics,sem_emo_sem_emo,1.79628110362682,1,2,2,1,610855.927034851,134,B
24,4,13/5/94,21,f,28,The dessert served Fred,Non-sensible,edin_semantics,sem_emo_sem_emo,1.46673666953575,1,1,1,1,610858.138149269,145,B
24,4,13/5/94,21,f,29,The beer drank Jack,Non-sensible,edin_semantics,sem_emo_sem_emo,1.52583188796416,1,1,1,1,610860.408295082,135,B
24,4,13/5/94,21,f,30,The fat chewed Adam,Non-sensible,edin_semantics,sem_emo_sem_emo,1.33751212328207,1,2,2,1,610862.489784693,106,B
24,4,13/5/94,21,f,31,Jen searched the room,Sensible,edin_semantics,sem_emo_sem_emo,2.40780983003788,2,2,2,1,610865.641763803,10,B
24,4,13/5/94,21,f,32,The sweets offered Tom,Non-sensible,edin_semantics,sem_emo_sem_emo,2.09002946794499,1,2,2,1,610868.476223617,84,B
24,4,13/5/94,21,f,33,Carl brushed the teeth,Sensible,edin_semantics,sem_emo_sem_emo,1.33745246904437,2,2,2,1,610870.557941262,72,B
24,4,13/5/94,21,f,34,The socks knitted Ryan,Non-sensible,edin_semantics,sem_emo_sem_emo,1.26698125188705,1,1,1,1,610872.56917935,141,B
24,4,13/5/94,21,f,35,Jake dusted the shelf,Sensible,edin_semantics,sem_emo_sem_emo,1.26675033231732,2,1,1,1,610874.580287546,47,B
24,4,13/5/94,21,f,36,Beth wiped the table,Sensible,edin_semantics,sem_emo_sem_emo,1.54917625838425,2,2,2,1,610876.873676702,40,B
24,4,13/5/94,21,f,37,The lemon squeezed Jay,Non-sensible,edin_semantics,sem_emo_sem_emo,1.64303097396623,1,2,2,1,610879.261196395,76,B
24,4,13/5/94,21,f,38,Jon cut the paper,Sensible,edin_semantics,sem_emo_sem_emo,1.60802035173401,2,2,2,1,610881.613435738,20,B
24,4,13/5/94,21,f,39,Sean read the book,Sensible,edin_semantics,sem_emo_sem_emo,1.84258145047352,2,2,2,1,610884.200893659,4,B
24,4,13/5/94,21,f,40,The monitor punched Erin,Non-sensible,edin_semantics,sem_emo_sem_emo,1.38466815568972,2,1,1,1,610886.329687476,125,B
24,4,13/5/94,21,f,41,The desk wiped Lucy,Non-sensible,edin_semantics,sem_emo_sem_emo,2.26676444406621,1,1,1,1,610889.340621841,115,B
24,4,13/5/94,21,f,42,Phil passed the towels,Sensible,edin_semantics,sem_emo_sem_emo,1.71349160734098,2,1,1,1,610891.798628145,43,B
24,4,13/5/94,21,f,43,The ticket took Tim,Non-sensible,edin_semantics,sem_emo_sem_emo,1.51401329331566,2,2,2,1,610894.056788909,128,B
24,4,13/5/94,21,f,44,Lara filed the papers,Sensible,edin_semantics,sem_emo_sem_emo,1.84318985952996,1,2,2,1,610896.644250037,24,B
24,4,13/5/94,21,f,45,Kate served the dish,Sensible,edin_semantics,sem_emo_sem_emo,1.49083730170969,2,2,2,1,610898.87882621,70,B
24,4,13/5/94,21,f,46,The hotline dialed Hugh,Non-sensible,edin_semantics,sem_emo_sem_emo,1.5374355991371,1,2,2,1,610901.160516721,138,B
24,4,13/5/94,21,f,47,Luke swallowed the pill,Sensible,edin_semantics,sem_emo_sem_emo,4.39503131527454,2,2,2,1,610906.30013682,22,B
24,4,13/5/94,21,f,48,The problem solved Phil,Non-sensible,edin_semantics,sem_emo_sem_emo,1.53720115148462,2,1,1,1,610908.581819313,109,B
24,4,13/5/94,21,f,49,Dan whisked the eggs,Sensible,edin_semantics,sem_emo_sem_emo,1.3247073093662,2,2,2,1,610910.651781545,62,B
24,4,13/5/94,21,f,50,Ewan wrote the story,Sensible,edin_semantics,sem_emo_sem_emo,1.52588352421299,1,2,2,1,610912.921666611,74,B
24,4,13/5/94,21,f,51,Kate built the house,Sensible,edin_semantics,sem_emo_sem_emo,1.04349178692792,2,2,2,1,610914.709372258,46,B
24,4,13/5/94,21,f,52,Rob mailed the parcel,Sensible,edin_semantics,sem_emo_sem_emo,1.59576557553373,2,2,2,1,610917.049844963,14,B
24,4,13/5/94,21,f,53,Will mashed the potatoes,Sensible,edin_semantics,sem_emo_sem_emo,1.33718819427304,2,2,2,1,610919.13156838,28,B
24,4,13/5/94,21,f,54,The ice crushed Josh,Non-sensible,edin_semantics,sem_emo_sem_emo,1.4546412921045,1,1,1,1,610921.330901728,81,B
24,4,13/5/94,21,f,55,Carl sold the sofa,Sensible,edin_semantics,sem_emo_sem_emo,1.76106040854938,1,2,2,1,610923.836098061,38,B
24,4,13/5/94,21,f,56,The carrots grated Tom,Non-sensible,edin_semantics,sem_emo_sem_emo,1.67886520957109,1,2,2,1,610926.258900027,140,B
24,4,13/5/94,21,f,57,Jen weighed the flour,Sensible,edin_semantics,sem_emo_sem_emo,1.51390905876178,1,2,2,1,610928.516999212,64,B
24,4,13/5/94,21,f,58,Ella watched the movie,Sensible,edin_semantics,sem_emo_sem_emo,1.43179115362,2,1,1,1,610930.692802492,33,B
24,4,13/5/94,21,f,59,The dress wore Kate,Non-sensible,edin_semantics,sem_emo_sem_emo,1.25504110369366,2,2,2,1,610932.692202422,100,B
24,4,13/5/94,21,f,60,The church described Erin,Non-sensible,edin_semantics,sem_emo_sem_emo,1.4671410996234,1,1,1,1,610934.903317802,117,B
24,4,13/5/94,21,f,61,Max lent the bucket,Sensible,edin_semantics,sem_emo_sem_emo,1.51379424042534,2,1,1,1,610937.161439438,19,B
24,4,13/5/94,21,f,62,Phil sniffed the milk,Sensible,edin_semantics,sem_emo_sem_emo,1.19654114474542,2,2,2,1,610939.102066153,18,B
24,4,13/5/94,21,f,63,Jen fixed the laptop,Sensible,edin_semantics,sem_emo_sem_emo,1.21922290406656,2,1,1,1,610941.066154303,37,B
24,4,13/5/94,21,f,64,Liz sliced the tomato,Sensible,edin_semantics,sem_emo_sem_emo,1.87853723962326,1,1,1,1,610943.68890893,3,B
24,4,13/5/94,21,f,65,The hair brushed Dan,Non-sensible,edin_semantics,sem_emo_sem_emo,1.5613284035353,1,1,1,1,610945.994119247,147,B
24,4,13/5/94,21,f,66,Ben chewed the toffee,Sensible,edin_semantics,sem_emo_sem_emo,1.13719512196258,2,1,1,1,610947.875875891,31,B
24,4,13/5/94,21,f,67,The portrait painted Jay,Non-sensible,edin_semantics,sem_emo_sem_emo,1.2552239150973,1,2,2,1,610949.875274859,110,B
24,4,13/5/94,21,f,68,The salt passed Leo,Non-sensible,edin_semantics,sem_emo_sem_emo,1.29063287365716,1,2,2,1,610951.909944233,118,B
24,4,13/5/94,21,f,69,The radio got Ben,Non-sensible,edin_semantics,sem_emo_sem_emo,3.72504015429877,2,2,2,1,610956.379193116,88,B
24,4,13/5/94,21,f,70,The trophy polished Anna,Non-sensible,edin_semantics,sem_emo_sem_emo,1.85515502397902,2,2,2,1,610958.978520626,104,B
24,4,13/5/94,21,f,71,Max kissed the mirror,Sensible,edin_semantics,sem_emo_sem_emo,1.6786301205866,1,1,1,1,610961.40119719,23,B
24,4,13/5/94,21,f,72,Leo stored the wine,Sensible,edin_semantics,sem_emo_sem_emo,1.2671669498086,1,2,2,1,610963.412376266,52,B
24,4,13/5/94,21,f,73,Mary iced the cake,Sensible,edin_semantics,sem_emo_sem_emo,1.64324810262769,2,2,2,1,610965.799890826,44,B
24,4,13/5/94,21,f,74,The sugar weighed Liz,Non-sensible,edin_semantics,sem_emo_sem_emo,1.79646808432881,2,1,1,1,610968.340334154,139,B
24,4,13/5/94,21,f,75,Tim pulled the handle,Sensible,edin_semantics,sem_emo_sem_emo,1.78442017361522,2,1,1,1,610970.868993203,73,B
24,4,13/5/94,21,f,76,Jane punched the wall,Sensible,edin_semantics,sem_emo_sem_emo,1.32533079234418,1,2,2,1,610972.938984621,50,B
24,4,13/5/94,21,f,77,Tim ate the ham,Sensible,edin_semantics,sem_emo_sem_emo,1.44364727288485,1,1,1,1,610975.126530163,67,B
24,4,13/5/94,21,f,78,The box labeled Ian,Non-sensible,edin_semantics,sem_emo_sem_emo,1.59640477388166,1,2,2,1,610977.4669724,136,B
24,4,13/5/94,21,f,79,Beth took the photo,Sensible,edin_semantics,sem_emo_sem_emo,1.65471326198895,1,1,1,1,610979.866268672,53,B
24,4,13/5/94,21,f,80,The perfume sniffed Tim,Non-sensible,edin_semantics,sem_emo_sem_emo,1.84323828853667,1,1,1,1,610982.453734932,93,B
24,4,13/5/94,21,f,81,Lily got the kettle,Sensible,edin_semantics,sem_emo_sem_emo,2.76082756463438,2,1,1,1,610985.958539985,13,B
24,4,13/5/94,21,f,82,Joe solved the puzzle,Sensible,edin_semantics,sem_emo_sem_emo,1.39683056401555,1,2,2,1,610988.099099798,34,B
24,4,13/5/94,21,f,83,Jon jumped the fence,Sensible,edin_semantics,sem_emo_sem_emo,2.09018373512663,1,1,1,1,610990.933520806,17,B
24,4,13/5/94,21,f,84,Jon trimmed the bushes,Sensible,edin_semantics,sem_emo_sem_emo,1.74903366551735,1,2,2,1,610993.426886357,32,B
24,4,13/5/94,21,f,85,The plants watered Luke,Non-sensible,edin_semantics,sem_emo_sem_emo,1.30224235786591,1,1,1,1,610995.473415699,129,B
24,4,13/5/94,21,f,86,The poster read Luke,Non-sensible,edin_semantics,sem_emo_sem_emo,1.46693487558514,1,1,1,1,610997.684452823,79,B
24,4,13/5/94,21,f,87,Matt pushed the trolley,Sensible,edin_semantics,sem_emo_sem_emo,1.32599115837365,2,2,2,1,610999.754431412,26,B
24,4,13/5/94,21,f,88,The kettle carried John,Non-sensible,edin_semantics,sem_emo_sem_emo,2.00811939057894,1,1,1,1,611002.506528932,105,B
24,4,13/5/94,21,f,89,Rob stroked the fur,Sensible,edin_semantics,sem_emo_sem_emo,2.78407764295116,1,1,1,1,611006.0348586,41,B
24,4,13/5/94,21,f,90,Ian cancelled the plans,Sensible,edin_semantics,sem_emo_sem_emo,1.29037886217702,2,1,1,1,611008.069568386,7,B
24,4,13/5/94,21,f,91,The rose kissed Hugh,Non-sensible,edin_semantics,sem_emo_sem_emo,1.47858252550941,2,2,2,1,611010.292438537,98,B
24,4,13/5/94,21,f,92,Kate lifted the box,Sensible,edin_semantics,sem_emo_sem_emo,1.34962898911908,2,1,1,1,611012.385888822,69,B
24,4,13/5/94,21,f,93,The gum swallowed Owen,Non-sensible,edin_semantics,sem_emo_sem_emo,2.04336381901521,1,1,1,1,611015.173309668,97,B
24,4,13/5/94,21,f,94,Phil typed the letter,Sensible,edin_semantics,sem_emo_sem_emo,1.81966331915464,1,1,1,1,611017.737226296,49,B
24,4,13/5/94,21,f,95,Tom knitted the scarf,Sensible,edin_semantics,sem_emo_sem_emo,2.29010400362313,1,2,2,1,611020.771612153,66,B
24,4,13/5/94,21,f,96,The cream whisked Tom,Non-sensible,edin_semantics,sem_emo_sem_emo,2.00806326419115,1,1,1,1,611023.523727954,137,B
24,4,13/5/94,21,f,97,The radio fixed Luke,Non-sensible,edin_semantics,sem_emo_sem_emo,1.67843993275892,1,2,2,1,611025.946530882,112,B
24,4,13/5/94,21,f,98,The wallet carried Leo,Non-sensible,edin_semantics,sem_emo_sem_emo,1.62018019426614,2,2,2,1,611028.310519543,150,B
24,4,13/5/94,21,f,99,Ryan carried the gun,Sensible,edin_semantics,sem_emo_sem_emo,1.42040489183273,2,1,1,1,611030.474657213,75,B
24,4,13/5/94,21,f,100,Eve taught the lesson,Sensible,edin_semantics,sem_emo_sem_emo,1.47807514376473,2,1,1,1,611032.697433393,15,B
24,4,13/5/94,21,f,101,Amy measured the thread,Sensible,edin_semantics,sem_emo_sem_emo,2.88953927683178,1,1,1,1,611036.331685572,51,B
24,4,13/5/94,21,f,102,The bath cleaned Jack,Non-sensible,edin_semantics,sem_emo_sem_emo,1.52545151207596,2,2,2,1,611038.601554923,80,B
24,4,13/5/94,21,f,103,Ryan painted the picture,Sensible,edin_semantics,sem_emo_sem_emo,2.37214140745346,2,1,1,1,611041.718263626,35,B
24,4,13/5/94,21,f,104,The curtains measured Rob,Non-sensible,edin_semantics,sem_emo_sem_emo,1.64338344719727,2,2,2,1,611044.105775621,126,B
24,4,13/5/94,21,f,105,Liz scrubbed the bowl,Sensible,edin_semantics,sem_emo_sem_emo,2.30184049357194,2,2,2,1,611047.152000277,56,B
24,4,13/5/94,21,f,106,The shoes counted Lucy,Non-sensible,edin_semantics,sem_emo_sem_emo,2.44249908917118,1,1,1,1,611050.339195271,123,B
24,4,13/5/94,21,f,107,Leah sucked the lolly,Sensible,edin_semantics,sem_emo_sem_emo,1.78414242865983,1,2,2,1,611052.867850151,12,B
24,4,13/5/94,21,f,108,The pan washed Beth,Non-sensible,edin_semantics,sem_emo_sem_emo,1.46701120724902,1,2,2,1,611055.078941157,132,B
24,4,13/5/94,21,f,109,Mark washed the dishes,Sensible,edin_semantics,sem_emo_sem_emo,1.61969814950135,1,1,1,1,611057.442998774,57,B
24,4,13/5/94,21,f,110,Tim cleaned the floor,Sensible,edin_semantics,sem_emo_sem_emo,2.05444667802658,2,1,1,1,611060.242117623,5,B
24,4,13/5/94,21,f,111,The bed sold Jay,Non-sensible,edin_semantics,sem_emo_sem_emo,3.05463943176437,2,1,1,1,611064.040950388,113,B
24,4,13/5/94,21,f,112,Liz labeled the jar,Sensible,edin_semantics,sem_emo_sem_emo,1.47887855174486,1,1,1,1,611066.263817332,61,B
24,4,13/5/94,21,f,113,The invite mailed Ian,Non-sensible,edin_semantics,sem_emo_sem_emo,1.93746311706491,2,1,1,1,611068.945368266,89,B
24,4,13/5/94,21,f,114,Dan carried the folder,Sensible,edin_semantics,sem_emo_sem_emo,2.26647354941815,2,2,2,1,611071.956231751,30,B
24,4,13/5/94,21,f,115,Erin posted the card,Sensible,edin_semantics,sem_emo_sem_emo,3.4653136273846,1,2,2,1,611076.166770474,36,B
24,4,13/5/94,21,f,116,The candy sucked Sam,Non-sensible,edin_semantics,sem_emo_sem_emo,2.00788943306543,2,1,1,1,611078.918835921,87,B
24,4,13/5/94,21,f,117,The onion sliced Liam,Non-sensible,edin_semantics,sem_emo_sem_emo,1.60788789368235,2,2,2,1,611081.271101243,78,B
24,4,13/5/94,21,f,118,The house dusted Alex,Non-sensible,edin_semantics,sem_emo_sem_emo,2.05468465352897,1,2,2,1,611084.070243505,122,B
24,4,13/5/94,21,f,119,The crate lifted Amy,Non-sensible,edin_semantics,sem_emo_sem_emo,3.44293142203242,2,2,2,1,611088.257245424,144,B
24,4,13/5/94,21,f,120,The rules taught Josh,Non-sensible,edin_semantics,sem_emo_sem_emo,1.58448515180498,2,2,2,1,611090.585929682,90,B
24,4,13/5/94,21,f,121,Matt drank the juice,Sensible,edin_semantics,sem_emo_sem_emo,2.12504522164818,1,2,2,1,611093.455649641,60,B
24,4,13/5/94,21,f,122,The car lent Fred,Non-sensible,edin_semantics,sem_emo_sem_emo,1.93712764210068,2,2,2,1,611096.137203461,94,B
24,4,13/5/94,21,f,123,Luke climbed the hill,Sensible,edin_semantics,sem_emo_sem_emo,1.72583329910412,2,2,2,1,611098.607107257,68,B
24,4,13/5/94,21,f,124,The turnip mashed Ella,Non-sensible,edin_semantics,sem_emo_sem_emo,1.72516619798262,1,1,1,1,611101.076892707,103,B
24,4,13/5/94,21,f,125,The rope pulled Andy,Non-sensible,edin_semantics,sem_emo_sem_emo,1.74933674756903,2,2,2,1,611103.570263069,148,B
24,4,13/5/94,21,f,126,The message typed Eve,Non-sensible,edin_semantics,sem_emo_sem_emo,1.10216204915196,2,2,2,1,611105.416771436,124,B
24,4,13/5/94,21,f,127,The rice stored Fred,Non-sensible,edin_semantics,sem_emo_sem_emo,1.44323097611777,1,1,1,1,611107.604349692,127,B
24,4,13/5/94,21,f,128,Phil chopped the herbs,Sensible,edin_semantics,sem_emo_sem_emo,1.6895603161538,1,1,1,1,611110.038941387,27,B
24,4,13/5/94,21,f,129,The door kicked Max,Non-sensible,edin_semantics,sem_emo_sem_emo,1.44332911691163,1,2,2,1,611112.226497514,114,B
24,4,13/5/94,21,f,130,The steak ate Mike,Non-sensible,edin_semantics,sem_emo_sem_emo,2.13724804099184,1,2,2,1,611115.107983469,142,B
24,4,13/5/94,21,f,131,The hair trimmed Bill,Non-sensible,edin_semantics,sem_emo_sem_emo,1.24304579140153,1,1,1,1,611117.09560329,107,B
24,4,13/5/94,21,f,132,The carrots chopped Fred,Non-sensible,edin_semantics,sem_emo_sem_emo,1.40798686840571,1,2,2,1,611119.247903442,102,B
24,4,13/5/94,21,f,133,The report filed Ian,Non-sensible,edin_semantics,sem_emo_sem_emo,1.56084603816271,1,1,1,1,611121.553124663,99,B
24,4,13/5/94,21,f,134,Will licked the spoon,Sensible,edin_semantics,sem_emo_sem_emo,1.70233626512345,2,1,1,1,611123.999433926,21,B
24,4,13/5/94,21,f,135,Sam tidied the room,Sensible,edin_semantics,sem_emo_sem_emo,1.5605025452096,2,2,2,1,611126.304600945,2,B
24,4,13/5/94,21,f,136,The pot scrubbed Josh,Non-sensible,edin_semantics,sem_emo_sem_emo,1.70216275460552,2,1,1,1,611128.750929451,131,B
24,4,13/5/94,21,f,137,Jon polished the coins,Sensible,edin_semantics,sem_emo_sem_emo,1.8668280109996,1,1,1,1,611131.361925459,29,B
24,4,13/5/94,21,f,138,Mike paid the bill,Sensible,edin_semantics,sem_emo_sem_emo,1.90179822244681,1,1,1,1,611134.008191553,59,B
24,4,13/5/94,21,f,139,Matt kicked the bike,Sensible,edin_semantics,sem_emo_sem_emo,1.78412863763515,2,1,1,1,611136.536854772,39,B
24,4,13/5/94,21,f,140,The party cancelled Phil,Non-sensible,edin_semantics,sem_emo_sem_emo,1.76061107753776,2,2,2,1,611139.041994979,82,B
24,4,13/5/94,21,f,141,The pillow hugged Kate,Non-sensible,edin_semantics,sem_emo_sem_emo,1.78404332557693,1,2,2,1,611141.570613618,86,B
24,4,13/5/94,21,f,142,The trousers ironed Eve,Non-sensible,edin_semantics,sem_emo_sem_emo,1.69009495922364,1,2,2,1,611144.005171958,130,B
24,4,13/5/94,21,f,143,Andy grated the cheese,Sensible,edin_semantics,sem_emo_sem_emo,1.41930481651798,1,1,1,1,611146.169261519,65,B
24,4,13/5/94,21,f,144,Matt offered the money,Sensible,edin_semantics,sem_emo_sem_emo,1.50211483892053,2,1,1,1,611148.415631591,9,B
24,4,13/5/94,21,f,145,The office entered Joe,Non-sensible,edin_semantics,sem_emo_sem_emo,1.98436128918547,1,1,1,1,611151.144228228,133,B
24,4,13/5/94,21,f,146,The internet searched Max,Non-sensible,edin_semantics,sem_emo_sem_emo,1.70203446596861,1,1,1,1,611153.590528511,85,B
24,4,13/5/94,21,f,147,The gift posted Jack,Non-sensible,edin_semantics,sem_emo_sem_emo,1.92461628862657,1,1,1,1,611156.260338143,111,B
24,4,13/5/94,21,f,148,The button pushed Ian,Non-sensible,edin_semantics,sem_emo_sem_emo,2.29010753158946,2,1,1,1,611159.294712774,101,B
24,4,13/5/94,21,f,149,The plate licked Jane,Non-sensible,edin_semantics,sem_emo_sem_emo,1.63141988625284,2,2,2,1,611161.670469998,96,B
24,4,13/5/94,21,f,150,Josh ironed the shirt,Sensible,edin_semantics,sem_emo_sem_emo,2.67814679304138,2,1,1,1,611165.092981711,55,B
24,4,13/5/94,21,f,151,The parcel mailed Rob,Non-sensible,edin_semantics,sem_emo_sem_emo,1.68331810971722,1,1,1,1,611169.97386952,14,A
24,4,13/5/94,21,f,152,The papers filed Lara,Non-sensible,edin_semantics,sem_emo_sem_emo,1.56890352943446,1,1,1,1,611172.290805101,24,A
24,4,13/5/94,21,f,153,The dishes washed Mark,Non-sensible,edin_semantics,sem_emo_sem_emo,1.28910527622793,2,2,2,1,611174.325479286,57,A
24,4,13/5/94,21,f,154,Ben got the radio,Sensible,edin_semantics,sem_emo_sem_emo,1.39591137552634,1,1,1,1,611176.466000934,88,A
24,4,13/5/94,21,f,155,Joe entered the office,Sensible,edin_semantics,sem_emo_sem_emo,1.68939289951231,2,2,2,1,611178.900640417,133,A
24,4,13/5/94,21,f,156,Jack posted the gift,Sensible,edin_semantics,sem_emo_sem_emo,1.34868510509841,1,2,2,1,611180.994061517,111,A
24,4,13/5/94,21,f,157,Rose built the shed,Sensible,edin_semantics,sem_emo_sem_emo,1.46633737103548,1,2,2,1,611183.205183632,121,A
24,4,13/5/94,21,f,158,The handle pulled Tim,Non-sensible,edin_semantics,sem_emo_sem_emo,2.85413577046711,1,2,2,1,611186.804105751,73,A
24,4,13/5/94,21,f,159,Erin described the church,Sensible,edin_semantics,sem_emo_sem_emo,1.88958802656271,1,2,2,1,611189.43858436,117,A
24,4,13/5/94,21,f,160,Ian dented the bowl,Sensible,edin_semantics,sem_emo_sem_emo,2.04244847933296,2,1,1,1,611192.225973134,146,A
24,4,13/5/94,21,f,161,Joe iced the donut,Sensible,edin_semantics,sem_emo_sem_emo,2.26640587719157,1,2,2,1,611195.236831808,119,A
24,4,13/5/94,21,f,162,Max kicked the door,Sensible,edin_semantics,sem_emo_sem_emo,1.28999046818353,2,1,1,1,611197.27154448,114,A
24,4,13/5/94,21,f,163,Zoe paid the debt,Sensible,edin_semantics,sem_emo_sem_emo,1.72519666654989,1,1,1,1,611199.741381887,134,A
24,4,13/5/94,21,f,164,The bike kicked Matt,Non-sensible,edin_semantics,sem_emo_sem_emo,2.4889790401794,1,2,2,1,611202.975711746,39,A
24,4,13/5/94,21,f,165,The scarf knitted Tom,Non-sensible,edin_semantics,sem_emo_sem_emo,5.40563373325858,1,1,1,1,611209.126784175,66,A
24,4,13/5/94,21,f,166,The mirror kissed Max,Non-sensible,edin_semantics,sem_emo_sem_emo,1.44269344653003,1,2,2,1,611211.314360507,23,A
24,4,13/5/94,21,f,167,Sam sucked the candy,Sensible,edin_semantics,sem_emo_sem_emo,1.34893334377557,2,2,2,1,611213.407845109,87,A
24,4,13/5/94,21,f,168,The flour weighed Jen,Non-sensible,edin_semantics,sem_emo_sem_emo,1.94845713616814,2,1,1,1,611216.101157228,64,A
24,4,13/5/94,21,f,169,Ian labeled the box,Sensible,edin_semantics,sem_emo_sem_emo,1.4547413571272,1,1,1,1,611218.300567549,136,A
24,4,13/5/94,21,f,170,Anna polished the trophy,Sensible,edin_semantics,sem_emo_sem_emo,1.32512071961537,2,1,1,1,611220.370488408,104,A
24,4,13/5/94,21,f,171,The tomato sliced Liz,Non-sensible,edin_semantics,sem_emo_sem_emo,1.49004319484811,1,2,2,1,611222.605095691,3,A
24,4,13/5/94,21,f,172,Fred served the dessert,Sensible,edin_semantics,sem_emo_sem_emo,2.70081764785573,1,2,2,1,611226.051108927,145,A
24,4,13/5/94,21,f,173,The ball squeezed Josh,Non-sensible,edin_semantics,sem_emo_sem_emo,1.51321245112922,2,2,2,1,611228.309252693,1,A
24,4,13/5/94,21,f,174,The picture painted Ryan,Non-sensible,edin_semantics,sem_emo_sem_emo,2.95978438516613,1,2,2,1,611232.014050176,35,A
24,4,13/5/94,21,f,175,The room searched Jen,Non-sensible,edin_semantics,sem_emo_sem_emo,1.47776917531155,1,1,1,1,611234.236902367,10,A
24,4,13/5/94,21,f,176,Alex wrote the report,Sensible,edin_semantics,sem_emo_sem_emo,1.98403543594759,2,2,2,1,611236.965473667,149,A
24,4,13/5/94,21,f,177,The milk sniffed Phil,Non-sensible,edin_semantics,sem_emo_sem_emo,2.20728788757697,2,1,1,1,611239.917532508,18,A
24,4,13/5/94,21,f,178,Josh crushed the ice,Sensible,edin_semantics,sem_emo_sem_emo,2.27772093878593,1,2,2,1,611242.940178347,81,A
24,4,13/5/94,21,f,179,Erin tidied the garage,Sensible,edin_semantics,sem_emo_sem_emo,1.48928500863258,2,2,2,1,611245.174854264,77,A
24,4,13/5/94,21,f,180,The plans cancelled Ian,Non-sensible,edin_semantics,sem_emo_sem_emo,1.30132765951566,2,2,2,1,611247.221252752,7,A
24,4,13/5/94,21,f,181,Lucy cut the ribbon,Sensible,edin_semantics,sem_emo_sem_emo,1.12528255581856,2,2,2,1,611249.091264567,95,A
24,4,13/5/94,21,f,182,Jay painted the portrait,Sensible,edin_semantics,sem_emo_sem_emo,1.26614513038658,2,1,1,1,611251.102413816,110,A
24,4,13/5/94,21,f,183,The box lifted Kate,Non-sensible,edin_semantics,sem_emo_sem_emo,1.25473192799836,1,2,2,1,611253.101837158,69,A
24,4,13/5/94,21,f,184,Ryan knitted the socks,Sensible,edin_semantics,sem_emo_sem_emo,1.19688463769853,1,2,2,1,611255.042426349,141,A
24,4,13/5/94,21,f,185,The pen described John,Non-sensible,edin_semantics,sem_emo_sem_emo,1.18538965121843,1,1,1,1,611256.971302784,42,A
24,4,13/5/94,21,f,186,Tim took the ticket,Sensible,edin_semantics,sem_emo_sem_emo,1.5840313306544,2,1,1,1,611259.299980949,128,A
24,4,13/5/94,21,f,187,Liam mixed the nuts,Sensible,edin_semantics,sem_emo_sem_emo,1.21915330749471,1,2,2,1,611261.264061081,83,A
24,4,13/5/94,21,f,188,Leo passed the salt,Sensible,edin_semantics,sem_emo_sem_emo,1.97205231094267,1,1,1,1,611263.980889797,118,A
24,4,13/5/94,21,f,189,The laptop fixed Jen,Non-sensible,edin_semantics,sem_emo_sem_emo,1.41894657025114,1,2,2,1,611266.144965567,37,A
24,4,13/5/94,21,f,190,Ben climbed the stairs,Sensible,edin_semantics,sem_emo_sem_emo,2.01889724330977,2,2,2,1,611268.908839988,143,A
24,4,13/5/94,21,f,191,The jar labeled Liz,Non-sensible,edin_semantics,sem_emo_sem_emo,1.28924286586698,2,2,2,1,611270.943510966,61,A
24,4,13/5/94,21,f,192,The cake iced Mary,Non-sensible,edin_semantics,sem_emo_sem_emo,1.30172086437233,1,1,1,1,611272.989962694,44,A
24,4,13/5/94,21,f,193,The pill swallowed Luke,Non-sensible,edin_semantics,sem_emo_sem_emo,1.72469890641514,2,1,1,1,611275.459801063,22,A
24,4,13/5/94,21,f,194,Jack cleaned the bath,Sensible,edin_semantics,sem_emo_sem_emo,1.52505317563191,2,1,1,1,611277.729754443,80,A
24,4,13/5/94,21,f,195,Ian filed the report,Sensible,edin_semantics,sem_emo_sem_emo,1.74819080892485,1,2,2,1,611280.22308279,99,A
24,4,13/5/94,21,f,196,The card posted Erin,Non-sensible,edin_semantics,sem_emo_sem_emo,1.17195814708248,2,1,1,1,611282.14016276,36,A
24,4,13/5/94,21,f,197,Dan brushed the hair,Sensible,edin_semantics,sem_emo_sem_emo,1.13711750728544,2,2,2,1,611284.021961098,147,A
24,4,13/5/94,21,f,198,Tom offered the sweets,Sensible,edin_semantics,sem_emo_sem_emo,1.19579931546468,2,1,1,1,611285.962567608,84,A
24,4,13/5/94,21,f,199,Lucy wiped the desk,Sensible,edin_semantics,sem_emo_sem_emo,1.184180209646,2,2,2,1,611287.89138503,115,A
24,4,13/5/94,21,f,200,Hugh dialed the hotline,Sensible,edin_semantics,sem_emo_sem_emo,1.51337120844983,1,1,1,1,611290.149528475,138,A
24,4,13/5/94,21,f,201,The spoon licked Will,Non-sensible,edin_semantics,sem_emo_sem_emo,0.995082694920711,2,2,2,1,611291.890200284,21,A
24,4,13/5/94,21,f,202,Emma pulled the rope,Sensible,edin_semantics,sem_emo_sem_emo,1.12500994233415,2,1,1,1,611293.760180669,120,A
24,4,13/5/94,21,f,203,Adam chewed the fat,Sensible,edin_semantics,sem_emo_sem_emo,1.43131456128322,2,1,1,1,611295.93600704,106,A
24,4,13/5/94,21,f,204,The thread measured Amy,Non-sensible,edin_semantics,sem_emo_sem_emo,1.2077545375796,2,2,2,1,611297.88838083,51,A
24,4,13/5/94,21,f,205,The tree hugged Amy,Non-sensible,edin_semantics,sem_emo_sem_emo,1.21963920095004,1,2,2,1,611299.852490468,11,A
24,4,13/5/94,21,f,206,The photo took Beth,Non-sensible,edin_semantics,sem_emo_sem_emo,1.25459433835931,1,2,2,1,611301.851899699,53,A
24,4,13/5/94,21,f,207,The garlic crushed Erin,Non-sensible,edin_semantics,sem_emo_sem_emo,1.43122989067342,2,1,1,1,611304.027715486,6,A
24,4,13/5/94,21,f,208,Amy lifted the crate,Sensible,edin_semantics,sem_emo_sem_emo,1.46605128725059,1,1,1,1,611306.238790456,144,A
24,4,13/5/94,21,f,209,Max searched the internet,Sensible,edin_semantics,sem_emo_sem_emo,1.19572683225852,2,2,2,1,611308.1794207,85,A
24,4,13/5/94,21,f,210,The table wiped Beth,Non-sensible,edin_semantics,sem_emo_sem_emo,1.52517055976205,2,1,1,1,611310.449335593,40,A
24,4,13/5/94,21,f,211,Eve ironed the trousers,Sensible,edin_semantics,sem_emo_sem_emo,1.57197315688245,1,1,1,1,611312.76626508,130,A
24,4,13/5/94,21,f,212,The trolley pushed Matt,Non-sensible,edin_semantics,sem_emo_sem_emo,1.50135440775193,1,1,1,1,611315.012624248,26,A
24,4,13/5/94,21,f,213,The book read Sean,Non-sensible,edin_semantics,sem_emo_sem_emo,1.10153086879291,1,1,1,1,611316.859146726,4,A
24,4,13/5/94,21,f,214,Andy pulled the rope,Sensible,edin_semantics,sem_emo_sem_emo,1.36055790178943,2,1,1,1,611318.96439476,148,A
24,4,13/5/94,21,f,215,Ella mashed the turnip,Sensible,edin_semantics,sem_emo_sem_emo,1.14891397207975,2,2,2,1,611320.857968074,103,A
24,4,13/5/94,21,f,216,The ham ate Tim,Non-sensible,edin_semantics,sem_emo_sem_emo,1.36056624050252,2,2,2,1,611322.963176338,67,A
24,4,13/5/94,21,f,217,The jumper wore Joe,Non-sensible,edin_semantics,sem_emo_sem_emo,1.36043282039464,2,2,2,1,611325.068450029,25,A
24,4,13/5/94,21,f,218,The sofa sold Carl,Non-sensible,edin_semantics,sem_emo_sem_emo,1.24298709933646,2,1,1,1,611327.056075944,38,A
24,4,13/5/94,21,f,219,The teeth brushed Carl,Non-sensible,edin_semantics,sem_emo_sem_emo,2.93691885226872,1,1,1,1,611330.737315777,72,A
24,4,13/5/94,21,f,220,Luke watered the plants,Sensible,edin_semantics,sem_emo_sem_emo,1.21942014805973,1,2,2,1,611332.701435037,129,A
24,4,13/5/94,21,f,221,Erin punched the monitor,Sensible,edin_semantics,sem_emo_sem_emo,1.33701500459574,1,2,2,1,611334.783183471,125,A
24,4,13/5/94,21,f,222,Josh taught the rules,Sensible,edin_semantics,sem_emo_sem_emo,1.64276349206921,1,1,1,1,611337.170690334,90,A
24,4,13/5/94,21,f,223,Sara jumped the hedge,Sensible,edin_semantics,sem_emo_sem_emo,1.56077836593613,2,1,1,1,611339.475917008,92,A
24,4,13/5/94,21,f,224,Tim sniffed the perfume,Sensible,edin_semantics,sem_emo_sem_emo,1.30148834106512,1,2,2,1,611341.522316137,93,A
24,4,13/5/94,21,f,225,The bill paid Mike,Non-sensible,edin_semantics,sem_emo_sem_emo,1.65465713571757,2,2,2,1,611343.921605353,59,A
24,4,13/5/94,21,f,226,The museum visited Mary,Non-sensible,edin_semantics,sem_emo_sem_emo,1.57169701554812,1,1,1,1,611346.238553122,16,A
24,4,13/5/94,21,f,227,Lucy counted the shoes,Sensible,edin_semantics,sem_emo_sem_emo,1.70142413268331,2,2,2,1,611348.684870082,123,A
24,4,13/5/94,21,f,228,The number dialed Tom,Non-sensible,edin_semantics,sem_emo_sem_emo,1.4667068424169,1,2,2,1,611350.895983859,63,A
24,4,13/5/94,21,f,229,The dish served Kate,Non-sensible,edin_semantics,sem_emo_sem_emo,1.46626039780676,1,1,1,1,611353.107108861,70,A
24,4,13/5/94,21,f,230,Tom grated the carrots,Sensible,edin_semantics,sem_emo_sem_emo,1.56056059582625,2,1,1,1,611355.412278766,140,A
24,4,13/5/94,21,f,231,The potatoes mashed Will,Non-sensible,edin_semantics,sem_emo_sem_emo,1.37209233699832,1,1,1,1,611357.529287664,28,A
24,4,13/5/94,21,f,232,The toffee chewed Ben,Non-sensible,edin_semantics,sem_emo_sem_emo,1.27793165284675,2,2,2,1,611359.552207399,31,A
24,4,13/5/94,21,f,233,The bowl scrubbed Liz,Non-sensible,edin_semantics,sem_emo_sem_emo,1.46619817777537,1,1,1,1,611361.763291028,56,A
24,4,13/5/94,21,f,234,Jay sold the bed,Sensible,edin_semantics,sem_emo_sem_emo,1.31302502145991,2,2,2,1,611363.821495923,113,A
24,4,13/5/94,21,f,235,The garden watered Jeff,Non-sensible,edin_semantics,sem_emo_sem_emo,1.9013780769892,1,1,1,1,611366.467761055,54,A
24,4,13/5/94,21,f,236,The floor cleaned Tim,Non-sensible,edin_semantics,sem_emo_sem_emo,1.17202934727538,2,2,2,1,611368.384854174,5,A
24,4,13/5/94,21,f,237,The juice drank Matt,Non-sensible,edin_semantics,sem_emo_sem_emo,1.80709648074117,1,1,1,1,611370.937023728,60,A
24,4,13/5/94,21,f,238,The eggs whisked Dan,Non-sensible,edin_semantics,sem_emo_sem_emo,1.1371819722699,2,1,1,1,611372.818829443,62,A
24,4,13/5/94,21,f,239,The hill climbed Luke,Non-sensible,edin_semantics,sem_emo_sem_emo,0.984062055824324,1,1,1,1,611374.547700618,68,A
24,4,13/5/94,21,f,240,Ryan stroked the blanket,Sensible,edin_semantics,sem_emo_sem_emo,1.71303297532722,2,1,1,1,611377.005791272,116,A
24,4,13/5/94,21,f,241,Phil solved the problem,Sensible,edin_semantics,sem_emo_sem_emo,1.32480737462174,1,2,2,1,611379.075740995,109,A
24,4,13/5/94,21,f,242,The puzzle solved Joe,Non-sensible,edin_semantics,sem_emo_sem_emo,1.27816064830404,2,1,1,1,611381.098715253,34,A
24,4,13/5/94,21,f,243,Kate hugged the pillow,Sensible,edin_semantics,sem_emo_sem_emo,1.70161848992575,2,1,1,1,611383.545009121,86,A
24,4,13/5/94,21,f,244,The wine stored Leo,Non-sensible,edin_semantics,sem_emo_sem_emo,1.37209682713728,2,1,1,1,611385.661998135,52,A
24,4,13/5/94,21,f,245,The bucket lent Max,Non-sensible,edin_semantics,sem_emo_sem_emo,2.14814584364649,2,2,2,1,611388.555256821,19,A
24,4,13/5/94,21,f,246,The bushes trimmed Jon,Non-sensible,edin_semantics,sem_emo_sem_emo,1.51356267929077,1,1,1,1,611390.813465372,32,A
24,4,13/5/94,21,f,247,The shelf dusted Jake,Non-sensible,edin_semantics,sem_emo_sem_emo,1.56054552202113,1,2,2,1,611393.118580114,47,A
24,4,13/5/94,21,f,248,Hugh kissed the rose,Sensible,edin_semantics,sem_emo_sem_emo,1.30131771718152,2,1,1,1,611395.165026068,98,A
24,4,13/5/94,21,f,249,The room entered Ryan,Non-sensible,edin_semantics,sem_emo_sem_emo,2.10139552422334,1,1,1,1,611398.011252521,58,A
24,4,13/5/94,21,f,250,Jay squeezed the lemon,Sensible,edin_semantics,sem_emo_sem_emo,1.73627792205662,2,1,1,1,611400.492845982,76,A
24,4,13/5/94,21,f,251,The money offered Matt,Non-sensible,edin_semantics,sem_emo_sem_emo,1.08991240442265,1,2,2,1,611402.327664363,9,A
24,4,13/5/94,21,f,252,The towels passed Phil,Non-sensible,edin_semantics,sem_emo_sem_emo,1.38379130256362,1,2,2,1,611404.456353946,43,A
24,4,13/5/94,21,f,253,The shirt ironed Josh,Non-sensible,edin_semantics,sem_emo_sem_emo,1.05434308503754,1,2,2,1,611406.255819495,55,A
24,4,13/5/94,21,f,254,Eve typed the message,Sensible,edin_semantics,sem_emo_sem_emo,1.1368808146799,2,1,1,1,611408.137600194,124,A
24,4,13/5/94,21,f,255,Phil cancelled the party,Sensible,edin_semantics,sem_emo_sem_emo,2.04217522440013,1,1,1,1,611410.92500821,82,A
24,4,13/5/94,21,f,256,The fence jumped Jon,Non-sensible,edin_semantics,sem_emo_sem_emo,1.34869761334267,2,2,2,1,611413.018517509,17,A
24,4,13/5/94,21,f,257,The movie watched Ella,Non-sensible,edin_semantics,sem_emo_sem_emo,1.99508044985123,1,2,2,1,611415.758865069,33,A
24,4,13/5/94,21,f,258,Leo carried the wallet,Sensible,edin_semantics,sem_emo_sem_emo,2.08945665892679,2,1,1,1,611418.59329217,150,A
24,4,13/5/94,21,f,259,Tom visited the hospital,Sensible,edin_semantics,sem_emo_sem_emo,1.26594275503885,2,2,2,1,611420.604470604,91,A
24,4,13/5/94,21,f,260,The sheets counted Bill,Non-sensible,edin_semantics,sem_emo_sem_emo,2.75921112718061,1,1,1,1,611424.109294258,48,A
24,4,13/5/94,21,f,261,Owen swallowed the gum,Sensible,edin_semantics,sem_emo_sem_emo,1.48991779261269,1,2,2,1,611426.343917256,97,A
24,4,13/5/94,21,f,262,The wall punched Jane,Non-sensible,edin_semantics,sem_emo_sem_emo,1.24211184983142,1,1,1,1,611428.331567867,50,A
24,4,13/5/94,21,f,263,Liam sliced the onion,Sensible,edin_semantics,sem_emo_sem_emo,2.34789965779055,2,1,1,1,611431.424712505,78,A
24,4,13/5/94,21,f,264,The house built Kate,Non-sensible,edin_semantics,sem_emo_sem_emo,2.06591568607837,1,1,1,1,611434.235830836,46,A
24,4,13/5/94,21,f,265,The coins polished Jon,Non-sensible,edin_semantics,sem_emo_sem_emo,1.30100469279569,2,2,2,1,611436.282135673,29,A
24,4,13/5/94,21,f,266,Luke fixed the radio,Sensible,edin_semantics,sem_emo_sem_emo,1.05573309282772,2,1,1,1,611438.081568829,112,A
24,4,13/5/94,21,f,267,The herbs chopped Phil,Non-sensible,edin_semantics,sem_emo_sem_emo,1.50232779816724,2,2,2,1,611440.327953334,27,A
24,4,13/5/94,21,f,268,The fruits mixed Jack,Non-sensible,edin_semantics,sem_emo_sem_emo,1.47826789750252,2,1,1,1,611442.550871914,8,A
24,4,13/5/94,21,f,269,Jack drank the beer,Sensible,edin_semantics,sem_emo_sem_emo,1.26647515303921,2,2,2,1,611444.56195798,135,A
24,4,13/5/94,21,f,270,Mike ate the steak,Sensible,edin_semantics,sem_emo_sem_emo,2.64259126456454,1,1,1,1,611447.949185495,142,A
24,4,13/5/94,21,f,271,The paper cut Jon,Non-sensible,edin_semantics,sem_emo_sem_emo,1.84299614361953,1,1,1,1,611450.536650793,20,A
24,4,13/5/94,21,f,272,The lolly sucked Leah,Non-sensible,edin_semantics,sem_emo_sem_emo,1.43062661320437,2,1,1,1,611452.712449262,12,A
24,4,13/5/94,21,f,273,Liz weighed the sugar,Sensible,edin_semantics,sem_emo_sem_emo,1.06607829208951,2,2,2,1,611454.52369075,139,A
24,4,13/5/94,21,f,274,Luke read the poster,Sensible,edin_semantics,sem_emo_sem_emo,1.46623153286055,1,2,2,1,611456.73482826,79,A
24,4,13/5/94,21,f,275,Fred stored the rice,Sensible,edin_semantics,sem_emo_sem_emo,1.66623005759902,2,2,2,1,611459.145823177,127,A
24,4,13/5/94,21,f,276,The room tidied Sam,Non-sensible,edin_semantics,sem_emo_sem_emo,2.13668453297578,1,1,1,1,611462.027320357,2,A
24,4,13/5/94,21,f,277,The cheese grated Andy,Non-sensible,edin_semantics,sem_emo_sem_emo,1.64283469237853,1,2,2,1,611464.414821448,65,A
24,4,13/5/94,21,f,278,The lever pulled Hugh,Non-sensible,edin_semantics,sem_emo_sem_emo,2.67739053128753,2,2,2,1,611467.837328991,45,A
24,4,13/5/94,21,f,279,The lesson taught Eve,Non-sensible,edin_semantics,sem_emo_sem_emo,4.06566167448182,2,2,2,1,611472.647658347,15,A
24,4,13/5/94,21,f,280,The fur stroked Rob,Non-sensible,edin_semantics,sem_emo_sem_emo,1.28959052823484,2,2,2,1,611474.682330287,41,A
24,4,13/5/94,21,f,281,Tom whisked the cream,Sensible,edin_semantics,sem_emo_sem_emo,3.2422167257173,1,2,2,1,611478.669369923,137,A
24,4,13/5/94,21,f,282,Ian mailed the invite,Sensible,edin_semantics,sem_emo_sem_emo,2.86574461322743,1,2,2,1,611482.280073753,89,A
24,4,13/5/94,21,f,283,Adam watched the opera,Sensible,edin_semantics,sem_emo_sem_emo,1.91313381015789,2,1,1,1,611484.938087883,108,A
24,4,13/5/94,21,f,284,Beth washed the pan,Sensible,edin_semantics,sem_emo_sem_emo,2.1720238950802,1,1,1,1,611487.854834623,132,A
24,4,13/5/94,21,f,285,The kettle got Lily,Non-sensible,edin_semantics,sem_emo_sem_emo,3.25394070753828,1,2,2,1,611491.853680987,13,A
24,4,13/5/94,21,f,286,The letter typed Phil,Non-sensible,edin_semantics,sem_emo_sem_emo,3.11306177615188,2,2,2,1,611495.711326415,49,A
24,4,13/5/94,21,f,287,Josh scrubbed the pot,Sensible,edin_semantics,sem_emo_sem_emo,1.21932649728842,2,2,2,1,611497.675431242,131,A
24,4,13/5/94,21,f,288,Bill trimmed the hair,Sensible,edin_semantics,sem_emo_sem_emo,2.48821700538974,2,2,2,1,611500.909763667,107,A
24,4,13/5/94,21,f,289,Fred chopped the carrots,Sensible,edin_semantics,sem_emo_sem_emo,1.96021896309685,2,1,1,1,611503.614843385,102,A
24,4,13/5/94,21,f,290,Kate wore the dress,Sensible,edin_semantics,sem_emo_sem_emo,1.07797033188399,2,1,1,1,611505.43780661,100,A
24,4,13/5/94,21,f,291,Jane licked the plate,Sensible,edin_semantics,sem_emo_sem_emo,3.52419941441622,2,1,1,1,611509.707109887,96,A
24,4,13/5/94,21,f,292,The gun carried Ryan,Non-sensible,edin_semantics,sem_emo_sem_emo,2.44199074525386,2,2,2,1,611512.894399493,75,A
24,4,13/5/94,21,f,293,Ian pushed the button,Sensible,edin_semantics,sem_emo_sem_emo,8.61675745225511,2,2,2,1,611522.256268826,101,A
24,4,13/5/94,21,f,294,Rob measured the curtains,Sensible,edin_semantics,sem_emo_sem_emo,7.75831663433928,1,1,1,1,611530.759629028,126,A
24,4,13/5/94,21,f,295,Alex dusted the house,Sensible,edin_semantics,sem_emo_sem_emo,2.60705081000924,1,1,1,1,611534.11155246,122,A
24,4,13/5/94,21,f,296,The story wrote Ewan,Non-sensible,edin_semantics,sem_emo_sem_emo,3.14773018844426,1,1,1,1,611538.004584396,74,A
24,4,13/5/94,21,f,297,The folder carried Dan,Non-sensible,edin_semantics,sem_emo_sem_emo,1.68931175686885,1,1,1,1,611540.439071536,30,A
24,4,13/5/94,21,f,298,The lorry dented Lily,Non-sensible,edin_semantics,sem_emo_sem_emo,2.86195817275438,2,2,2,1,611544.037985637,71,A
24,4,13/5/94,21,f,299,Fred lent the car,Sensible,edin_semantics,sem_emo_sem_emo,1.50154299207497,1,1,1,1,611546.284361161,94,A
24,4,13/5/94,21,f,300,John carried the kettle,Sensible,edin_semantics,sem_emo_sem_emo,1.47781279345509,1,2,2,1,611548.507235802,105,A
