subject_column,AssignedList_column,subject_dob_column,subject_age_column,subject_gender_column,trialnum_column,Stim_column,Type_column,Experiment_column,OrderGroup_column,ReactionTime_column,StimSide_column,StimPosition_column,Response_column,Valid_column,TrialEndSecs_column,PairID_column,List_column
25,1,12/12/94,21,f,1,The lorry dented Lily,Non-sensible,edin_semantics,emo_sem_emo_sem,2.61281129252166,1,1,1,1,774812.00675055,71,A
25,1,12/12/94,21,f,2,The ham ate Tim,Non-sensible,edin_semantics,emo_sem_emo_sem,2.41676437982824,1,1,1,1,774815.170469998,67,A
25,1,12/12/94,21,f,3,Alex dusted the house,Sensible,edin_semantics,emo_sem_emo_sem,3.53481690632179,2,2,2,1,774819.45160502,122,A
25,1,12/12/94,21,f,4,Luke watered the plants,Sensible,edin_semantics,emo_sem_emo_sem,6.43960521719418,1,1,1,1,774826.637637076,129,A
25,1,12/12/94,21,f,5,Luke read the poster,Sensible,edin_semantics,emo_sem_emo_sem,1.41967621212825,2,1,1,1,774828.801669228,79,A
25,1,12/12/94,21,f,6,Erin punched the monitor,Sensible,edin_semantics,emo_sem_emo_sem,1.25531981082167,1,1,1,1,774830.801096419,125,A
25,1,12/12/94,21,f,7,Jay squeezed the lemon,Sensible,edin_semantics,emo_sem_emo_sem,1.56145957880653,1,2,2,1,774833.106302887,76,A
25,1,12/12/94,21,f,8,Tim took the ticket,Sensible,edin_semantics,emo_sem_emo_sem,3.6433706182288,1,2,2,1,774837.493215132,128,A
25,1,12/12/94,21,f,9,Kate wore the dress,Sensible,edin_semantics,emo_sem_emo_sem,1.89069387502968,2,2,2,1,774840.127708816,100,A
25,1,12/12/94,21,f,10,Josh crushed the ice,Sensible,edin_semantics,emo_sem_emo_sem,1.59680278948508,2,1,1,1,774842.468160032,81,A
25,1,12/12/94,21,f,11,The fruits mixed Jack,Non-sensible,edin_semantics,emo_sem_emo_sem,3.18452209897805,2,2,2,1,774846.396411701,8,A
25,1,12/12/94,21,f,12,Anna polished the trophy,Sensible,edin_semantics,emo_sem_emo_sem,2.09026872622781,2,2,2,1,774849.230874724,104,A
25,1,12/12/94,21,f,13,Liz weighed the sugar,Sensible,edin_semantics,emo_sem_emo_sem,2.8552303937031,1,1,1,1,774852.82979588,139,A
25,1,12/12/94,21,f,14,The box lifted Kate,Non-sensible,edin_semantics,emo_sem_emo_sem,4.40764786547516,2,1,1,1,774857.98117075,69,A
25,1,12/12/94,21,f,15,The book read Sean,Non-sensible,edin_semantics,emo_sem_emo_sem,6.75975186401047,2,2,2,1,774865.484800678,4,A
25,1,12/12/94,21,f,16,The laptop fixed Jen,Non-sensible,edin_semantics,emo_sem_emo_sem,2.6783065124182,1,1,2,0,774868.907286412,37,A
25,1,12/12/94,21,f,17,Jane licked the plate,Sensible,edin_semantics,emo_sem_emo_sem,3.51341033657081,2,2,2,1,774873.164842936,96,A
25,1,12/12/94,21,f,18,Amy lifted the crate,Sensible,edin_semantics,emo_sem_emo_sem,1.92571957118344,2,2,2,1,774875.834669888,144,A
25,1,12/12/94,21,f,19,The dish served Kate,Non-sensible,edin_semantics,emo_sem_emo_sem,2.79599245404825,2,2,2,1,774879.374796983,70,A
25,1,12/12/94,21,f,20,The trolley pushed Matt,Non-sensible,edin_semantics,emo_sem_emo_sem,2.8901951527223,1,2,2,1,774883.008947494,26,A
25,1,12/12/94,21,f,21,Ben climbed the stairs,Sensible,edin_semantics,emo_sem_emo_sem,1.78443107823841,2,1,1,1,774885.537582169,143,A
25,1,12/12/94,21,f,22,The shelf dusted Jake,Non-sensible,edin_semantics,emo_sem_emo_sem,3.12544452026486,2,1,1,1,774889.407003856,47,A
25,1,12/12/94,21,f,23,The bushes trimmed Jon,Non-sensible,edin_semantics,emo_sem_emo_sem,1.77315931394696,1,2,2,1,774891.923903645,32,A
25,1,12/12/94,21,f,24,Zoe paid the debt,Sensible,edin_semantics,emo_sem_emo_sem,1.43222284514923,1,2,2,1,774894.099705642,134,A
25,1,12/12/94,21,f,25,The teeth brushed Carl,Non-sensible,edin_semantics,emo_sem_emo_sem,1.35032591735944,1,2,2,1,774896.193207243,72,A
25,1,12/12/94,21,f,26,Leo passed the salt,Sensible,edin_semantics,emo_sem_emo_sem,1.35014150233474,2,2,2,1,774898.286712051,118,A
25,1,12/12/94,21,f,27,The jumper wore Joe,Non-sensible,edin_semantics,emo_sem_emo_sem,2.1502687005559,1,1,1,1,774901.179971058,25,A
25,1,12/12/94,21,f,28,Eve ironed the trousers,Sensible,edin_semantics,emo_sem_emo_sem,3.03247852437198,2,2,2,1,774904.95529364,130,A
25,1,12/12/94,21,f,29,The room tidied Sam,Non-sensible,edin_semantics,emo_sem_emo_sem,2.49073980224784,1,2,2,1,774908.189622857,2,A
25,1,12/12/94,21,f,30,The dishes washed Mark,Non-sensible,edin_semantics,emo_sem_emo_sem,2.59668668825179,1,1,1,1,774911.529816214,57,A
25,1,12/12/94,21,f,31,Ben got the radio,Sensible,edin_semantics,emo_sem_emo_sem,3.2673741360195,1,2,2,1,774915.540329792,88,A
25,1,12/12/94,21,f,32,The handle pulled Tim,Non-sensible,edin_semantics,emo_sem_emo_sem,1.47937983972952,1,1,1,1,774917.763194812,73,A
25,1,12/12/94,21,f,33,The jar labeled Liz,Non-sensible,edin_semantics,emo_sem_emo_sem,3.34940159739926,2,1,1,1,774921.85611334,61,A
25,1,12/12/94,21,f,34,Tom whisked the cream,Sensible,edin_semantics,emo_sem_emo_sem,1.83103771426249,2,1,1,1,774924.431800134,137,A
25,1,12/12/94,21,f,35,Alex wrote the report,Sensible,edin_semantics,emo_sem_emo_sem,1.29050683008973,2,1,1,1,774926.466459566,149,A
25,1,12/12/94,21,f,36,Ryan stroked the blanket,Sensible,edin_semantics,emo_sem_emo_sem,3.31362829892896,1,2,2,1,774930.524074012,116,A
25,1,12/12/94,21,f,37,Ella mashed the turnip,Sensible,edin_semantics,emo_sem_emo_sem,1.33758781361394,2,1,1,1,774932.605800316,103,A
25,1,12/12/94,21,f,38,The bike kicked Matt,Non-sensible,edin_semantics,emo_sem_emo_sem,1.25568383000791,2,1,1,1,774934.605199604,39,A
25,1,12/12/94,21,f,39,The sofa sold Carl,Non-sensible,edin_semantics,emo_sem_emo_sem,2.85451935359742,2,2,2,1,774938.204111139,38,A
25,1,12/12/94,21,f,40,Kate hugged the pillow,Sensible,edin_semantics,emo_sem_emo_sem,1.77293641248252,2,2,2,1,774940.721009966,86,A
25,1,12/12/94,21,f,41,Erin described the church,Sensible,edin_semantics,emo_sem_emo_sem,1.33749737008475,2,1,1,1,774942.802735307,117,A
25,1,12/12/94,21,f,42,The milk sniffed Phil,Non-sensible,edin_semantics,emo_sem_emo_sem,1.80830303579569,1,2,2,1,774945.354932764,18,A
25,1,12/12/94,21,f,43,Dan brushed the hair,Sensible,edin_semantics,emo_sem_emo_sem,1.23176376405172,1,1,1,1,774947.33083598,147,A
25,1,12/12/94,21,f,44,Max searched the internet,Sensible,edin_semantics,emo_sem_emo_sem,1.45539370505139,1,1,1,1,774949.530151368,85,A
25,1,12/12/94,21,f,45,The thread measured Amy,Non-sensible,edin_semantics,emo_sem_emo_sem,3.86639535753056,2,1,1,1,774954.140510743,51,A
25,1,12/12/94,21,f,46,Tom visited the hospital,Sensible,edin_semantics,emo_sem_emo_sem,1.46709395351354,2,1,1,1,774956.351609125,91,A
25,1,12/12/94,21,f,47,Eve typed the message,Sensible,edin_semantics,emo_sem_emo_sem,2.37270812271163,2,2,2,1,774959.468374595,124,A
25,1,12/12/94,21,f,48,Adam chewed the fat,Sensible,edin_semantics,emo_sem_emo_sem,2.67843127320521,1,2,2,1,774962.890814466,106,A
25,1,12/12/94,21,f,49,The fur stroked Rob,Non-sensible,edin_semantics,emo_sem_emo_sem,4.2778906004969,1,1,1,1,774967.912857348,41,A
25,1,12/12/94,21,f,50,The lolly sucked Leah,Non-sensible,edin_semantics,emo_sem_emo_sem,2.66643820598256,1,2,2,1,774971.323600499,12,A
25,1,12/12/94,21,f,51,Fred lent the car,Sensible,edin_semantics,emo_sem_emo_sem,2.87814595922828,2,2,2,1,774974.946013237,94,A
25,1,12/12/94,21,f,52,Ian dented the bowl,Sensible,edin_semantics,emo_sem_emo_sem,1.58432639460079,2,2,2,1,774977.274756508,146,A
25,1,12/12/94,21,f,53,The tree hugged Amy,Non-sensible,edin_semantics,emo_sem_emo_sem,6.66545070381835,1,1,1,1,774984.684303046,11,A
25,1,12/12/94,21,f,54,The photo took Beth,Non-sensible,edin_semantics,emo_sem_emo_sem,1.21975017059594,2,1,1,1,774986.648386064,53,A
25,1,12/12/94,21,f,55,Liam sliced the onion,Sensible,edin_semantics,emo_sem_emo_sem,2.79672786896117,1,2,2,1,774990.188512839,78,A
25,1,12/12/94,21,f,56,The cheese grated Andy,Non-sensible,edin_semantics,emo_sem_emo_sem,1.37343135022093,2,1,1,1,774992.305531359,65,A
25,1,12/12/94,21,f,57,The tomato sliced Liz,Non-sensible,edin_semantics,emo_sem_emo_sem,2.63166010682471,2,1,1,1,774995.680989991,3,A
25,1,12/12/94,21,f,58,The plans cancelled Ian,Non-sensible,edin_semantics,emo_sem_emo_sem,2.50218283187132,1,1,1,1,774998.927053773,7,A
25,1,12/12/94,21,f,59,Jay sold the bed,Sensible,edin_semantics,emo_sem_emo_sem,2.37245539412834,1,1,1,1,775002.043785247,113,A
25,1,12/12/94,21,f,60,The card posted Erin,Non-sensible,edin_semantics,emo_sem_emo_sem,2.32588403730188,2,2,2,1,775005.113458509,36,A
25,1,12/12/94,21,f,61,Emma pulled the rope,Sensible,edin_semantics,emo_sem_emo_sem,1.55000436177943,2,2,2,1,775007.406868191,120,A
25,1,12/12/94,21,f,62,Jack posted the gift,Sensible,edin_semantics,emo_sem_emo_sem,1.4320942357881,2,1,1,1,775009.582695204,111,A
25,1,12/12/94,21,f,63,John carried the kettle,Sensible,edin_semantics,emo_sem_emo_sem,1.44414663652424,1,1,1,1,775011.770298797,105,A
25,1,12/12/94,21,f,64,The paper cut Jon,Non-sensible,edin_semantics,emo_sem_emo_sem,2.07873974333052,1,2,2,1,775014.592925264,20,A
25,1,12/12/94,21,f,65,The hill climbed Luke,Non-sensible,edin_semantics,emo_sem_emo_sem,2.18464140745346,2,2,2,1,775017.521485788,68,A
25,1,12/12/94,21,f,66,The picture painted Ryan,Non-sensible,edin_semantics,emo_sem_emo_sem,1.14949319558218,2,1,1,1,775019.41509342,35,A
25,1,12/12/94,21,f,67,The toffee chewed Ben,Non-sensible,edin_semantics,emo_sem_emo_sem,1.14939794118982,2,1,1,1,775021.308582384,31,A
25,1,12/12/94,21,f,68,The floor cleaned Tim,Non-sensible,edin_semantics,emo_sem_emo_sem,3.24341590423137,1,1,1,1,775025.295606947,5,A
25,1,12/12/94,21,f,69,The letter typed Phil,Non-sensible,edin_semantics,emo_sem_emo_sem,1.51444081531372,2,1,1,1,775027.553766107,49,A
25,1,12/12/94,21,f,70,The shirt ironed Josh,Non-sensible,edin_semantics,emo_sem_emo_sem,1.65545444982126,1,1,1,1,775029.95303159,55,A
25,1,12/12/94,21,f,71,Hugh dialed the hotline,Sensible,edin_semantics,emo_sem_emo_sem,1.32624164188746,2,2,2,1,775032.023071757,138,A
25,1,12/12/94,21,f,72,Joe iced the donut,Sensible,edin_semantics,emo_sem_emo_sem,1.26792385301087,1,1,1,1,775034.034174501,119,A
25,1,12/12/94,21,f,73,Rose built the shed,Sensible,edin_semantics,emo_sem_emo_sem,1.87953789136373,2,1,1,1,775036.656960238,121,A
25,1,12/12/94,21,f,74,Josh taught the rules,Sensible,edin_semantics,emo_sem_emo_sem,1.52661220380105,1,2,2,1,775038.926802328,90,A
25,1,12/12/94,21,f,75,Lucy wiped the desk,Sensible,edin_semantics,emo_sem_emo_sem,2.84314143063966,1,1,1,1,775042.513979938,115,A
25,1,12/12/94,21,f,76,Lucy cut the ribbon,Sensible,edin_semantics,emo_sem_emo_sem,1.93804971699137,2,1,1,1,775045.195525098,95,A
25,1,12/12/94,21,f,77,The flour weighed Jen,Non-sensible,edin_semantics,emo_sem_emo_sem,1.16236568172462,2,2,2,1,775047.100881087,64,A
25,1,12/12/94,21,f,78,The pill swallowed Luke,Non-sensible,edin_semantics,emo_sem_emo_sem,2.04428172449116,2,2,2,1,775049.888223997,22,A
25,1,12/12/94,21,f,79,Jack drank the beer,Sensible,edin_semantics,emo_sem_emo_sem,1.16155906661879,1,1,1,1,775051.793520331,135,A
25,1,12/12/94,21,f,80,Jack cleaned the bath,Sensible,edin_semantics,emo_sem_emo_sem,1.31443683838006,2,2,2,1,775053.851734206,80,A
25,1,12/12/94,21,f,81,Fred stored the rice,Sensible,edin_semantics,emo_sem_emo_sem,1.70257905148901,1,1,1,1,775056.298064637,127,A
25,1,12/12/94,21,f,82,The spoon licked Will,Non-sensible,edin_semantics,emo_sem_emo_sem,1.45564162300434,2,1,1,1,775058.497492277,21,A
25,1,12/12/94,21,f,83,The mirror kissed Max,Non-sensible,edin_semantics,emo_sem_emo_sem,1.44354528328404,2,1,1,1,775060.684982335,23,A
25,1,12/12/94,21,f,84,The wall punched Jane,Non-sensible,edin_semantics,emo_sem_emo_sem,1.46732551453169,1,2,2,1,775062.896071416,50,A
25,1,12/12/94,21,f,85,The sheets counted Bill,Non-sensible,edin_semantics,emo_sem_emo_sem,1.98497130186297,1,2,2,1,775065.624688259,48,A
25,1,12/12/94,21,f,86,The juice drank Matt,Non-sensible,edin_semantics,emo_sem_emo_sem,2.07868361705914,1,2,2,1,775068.44734776,60,A
25,1,12/12/94,21,f,87,The lever pulled Hugh,Non-sensible,edin_semantics,emo_sem_emo_sem,1.09112312889192,2,1,1,1,775070.282089489,45,A
25,1,12/12/94,21,f,88,The house built Kate,Non-sensible,edin_semantics,emo_sem_emo_sem,2.26709703239612,1,2,2,1,775073.292963238,46,A
25,1,12/12/94,21,f,89,Lucy counted the shoes,Sensible,edin_semantics,emo_sem_emo_sem,1.71399514039513,2,1,1,1,775075.751038818,123,A
25,1,12/12/94,21,f,90,Tom offered the sweets,Sensible,edin_semantics,emo_sem_emo_sem,3.68987622705754,2,2,2,1,775080.185020821,84,A
25,1,12/12/94,21,f,91,The potatoes mashed Will,Non-sensible,edin_semantics,emo_sem_emo_sem,1.50241503445432,2,2,2,1,775082.431389931,28,A
25,1,12/12/94,21,f,92,The ball squeezed Josh,Non-sensible,edin_semantics,emo_sem_emo_sem,1.47851677751169,2,1,1,1,775084.654245008,1,A
25,1,12/12/94,21,f,93,The bowl scrubbed Liz,Non-sensible,edin_semantics,emo_sem_emo_sem,2.01973977917805,1,2,2,1,775087.418136107,56,A
25,1,12/12/94,21,f,94,Leo carried the wallet,Sensible,edin_semantics,emo_sem_emo_sem,1.60813100077212,1,2,2,1,775089.770359734,150,A
25,1,12/12/94,21,f,95,Ian pushed the button,Sensible,edin_semantics,emo_sem_emo_sem,3.01927793992218,1,1,1,1,775093.533930432,101,A
25,1,12/12/94,21,f,96,Sara jumped the hedge,Sensible,edin_semantics,emo_sem_emo_sem,2.51382791611832,2,2,2,1,775096.791803829,92,A
25,1,12/12/94,21,f,97,Phil solved the problem,Sensible,edin_semantics,emo_sem_emo_sem,1.20831612136681,2,1,1,1,775098.744177618,109,A
25,1,12/12/94,21,f,98,Bill trimmed the hair,Sensible,edin_semantics,emo_sem_emo_sem,1.85512231034227,1,1,1,1,775101.343365294,107,A
25,1,12/12/94,21,f,99,Ian mailed the invite,Sensible,edin_semantics,emo_sem_emo_sem,1.66688817855902,1,1,1,1,775103.754393887,89,A
25,1,12/12/94,21,f,100,The cake iced Mary,Non-sensible,edin_semantics,emo_sem_emo_sem,3.37207084870897,2,2,2,1,775107.870821638,44,A
25,1,12/12/94,21,f,101,Fred served the dessert,Sensible,edin_semantics,emo_sem_emo_sem,1.32577723695431,1,1,1,1,775109.940840958,145,A
25,1,12/12/94,21,f,102,The garlic crushed Erin,Non-sensible,edin_semantics,emo_sem_emo_sem,1.58453678805381,1,2,2,1,775112.26950469,6,A
25,1,12/12/94,21,f,103,The towels passed Phil,Non-sensible,edin_semantics,emo_sem_emo_sem,1.49049541237764,1,1,1,1,775114.504112294,43,A
25,1,12/12/94,21,f,104,The puzzle solved Joe,Non-sensible,edin_semantics,emo_sem_emo_sem,5.05395629466511,1,2,2,1,775120.302373533,34,A
25,1,12/12/94,21,f,105,The gun carried Ryan,Non-sensible,edin_semantics,emo_sem_emo_sem,0.867225385271013,2,1,1,1,775121.913643437,75,A
25,1,12/12/94,21,f,106,Owen swallowed the gum,Sensible,edin_semantics,emo_sem_emo_sem,0.902064421446994,2,1,1,1,775123.560209726,97,A
25,1,12/12/94,21,f,107,The movie watched Ella,Non-sensible,edin_semantics,emo_sem_emo_sem,1.05548292992171,2,1,1,1,775125.35966373,33,A
25,1,12/12/94,21,f,108,Jay painted the portrait,Sensible,edin_semantics,emo_sem_emo_sem,2.32570603664499,1,2,2,1,775128.4293588,110,A
25,1,12/12/94,21,f,109,Fred chopped the carrots,Sensible,edin_semantics,emo_sem_emo_sem,2.64314418879803,1,2,2,1,775131.816585994,102,A
25,1,12/12/94,21,f,110,The papers filed Lara,Non-sensible,edin_semantics,emo_sem_emo_sem,2.18423505313694,2,2,2,1,775134.745092958,24,A
25,1,12/12/94,21,f,111,Tom grated the carrots,Sensible,edin_semantics,emo_sem_emo_sem,1.78441889071837,2,2,2,1,775137.273791777,140,A
25,1,12/12/94,21,f,112,Tim sniffed the perfume,Sensible,edin_semantics,emo_sem_emo_sem,1.14939505467191,2,1,1,1,775139.16728876,93,A
25,1,12/12/94,21,f,113,The garden watered Jeff,Non-sensible,edin_semantics,emo_sem_emo_sem,2.77238637476694,2,2,2,1,775142.683960195,54,A
25,1,12/12/94,21,f,114,Mike ate the steak,Sensible,edin_semantics,emo_sem_emo_sem,3.88964800152462,2,2,2,1,775147.317787418,142,A
25,1,12/12/94,21,f,115,The bucket lent Max,Non-sensible,edin_semantics,emo_sem_emo_sem,1.2429312937893,1,1,1,1,775149.305442198,19,A
25,1,12/12/94,21,f,116,The folder carried Dan,Non-sensible,edin_semantics,emo_sem_emo_sem,2.86618592625018,1,2,2,1,775152.916161423,30,A
25,1,12/12/94,21,f,117,Hugh kissed the rose,Sensible,edin_semantics,emo_sem_emo_sem,2.79495940939523,2,2,2,1,775156.456219884,98,A
25,1,12/12/94,21,f,118,The museum visited Mary,Non-sensible,edin_semantics,emo_sem_emo_sem,6.14727476367261,2,2,2,1,775163.348284845,16,A
25,1,12/12/94,21,f,119,Adam watched the opera,Sensible,edin_semantics,emo_sem_emo_sem,3.00720950309187,2,2,2,1,775167.100073189,108,A
25,1,12/12/94,21,f,120,The eggs whisked Dan,Non-sensible,edin_semantics,emo_sem_emo_sem,2.24281679606065,1,2,2,1,775170.087427453,62,A
25,1,12/12/94,21,f,121,Sam sucked the candy,Sensible,edin_semantics,emo_sem_emo_sem,2.48997520178091,2,1,1,1,775173.321742558,87,A
25,1,12/12/94,21,f,122,The fence jumped Jon,Non-sensible,edin_semantics,emo_sem_emo_sem,1.77172440523282,2,1,1,1,775175.838633687,17,A
25,1,12/12/94,21,f,123,The kettle got Lily,Non-sensible,edin_semantics,emo_sem_emo_sem,1.63141956552863,2,1,1,1,775178.214411116,13,A
25,1,12/12/94,21,f,124,The wine stored Leo,Non-sensible,edin_semantics,emo_sem_emo_sem,2.17189271980897,1,2,2,1,775181.131167158,52,A
25,1,12/12/94,21,f,125,Rob measured the curtains,Sensible,edin_semantics,emo_sem_emo_sem,2.16062352142762,1,2,2,1,775184.036195368,126,A
25,1,12/12/94,21,f,126,The story wrote Ewan,Non-sensible,edin_semantics,emo_sem_emo_sem,1.24363239132799,1,2,2,1,775186.023810379,74,A
25,1,12/12/94,21,f,127,Phil cancelled the party,Sensible,edin_semantics,emo_sem_emo_sem,1.46663018991239,2,2,2,1,775188.234902347,82,A
25,1,12/12/94,21,f,128,The pen described John,Non-sensible,edin_semantics,emo_sem_emo_sem,1.79556300770491,1,2,2,1,775190.775310715,42,A
25,1,12/12/94,21,f,129,Beth washed the pan,Sensible,edin_semantics,emo_sem_emo_sem,1.54868715780322,2,2,2,1,775193.068749262,132,A
25,1,12/12/94,21,f,130,Max kicked the door,Sensible,edin_semantics,emo_sem_emo_sem,1.45464931009337,1,2,2,1,775195.268078762,114,A
25,1,12/12/94,21,f,131,The lesson taught Eve,Non-sensible,edin_semantics,emo_sem_emo_sem,3.86557976214681,1,1,1,1,775199.878477906,15,A
25,1,12/12/94,21,f,132,Ryan knitted the socks,Sensible,edin_semantics,emo_sem_emo_sem,1.64277247234713,2,1,1,1,775202.266029671,141,A
25,1,12/12/94,21,f,133,The parcel mailed Rob,Non-sensible,edin_semantics,emo_sem_emo_sem,3.60675831174012,1,2,2,1,775206.617650662,14,A
25,1,12/12/94,21,f,134,The coins polished Jon,Non-sensible,edin_semantics,emo_sem_emo_sem,1.69024377409369,2,1,1,1,775209.052177893,29,A
25,1,12/12/94,21,f,135,The room entered Ryan,Non-sensible,edin_semantics,emo_sem_emo_sem,2.19599591789301,2,2,2,1,775211.992505375,58,A
25,1,12/12/94,21,f,136,Josh scrubbed the pot,Sensible,edin_semantics,emo_sem_emo_sem,1.56104745145421,2,1,1,1,775214.29768843,131,A
25,1,12/12/94,21,f,137,Andy pulled the rope,Sensible,edin_semantics,emo_sem_emo_sem,1.38421690021642,2,2,2,1,775216.426426121,148,A
25,1,12/12/94,21,f,138,The number dialed Tom,Non-sensible,edin_semantics,emo_sem_emo_sem,1.31373349565547,2,1,1,1,775218.484614018,63,A
25,1,12/12/94,21,f,139,Ian filed the report,Sensible,edin_semantics,emo_sem_emo_sem,1.72501834528521,1,1,1,1,775220.95448061,99,A
25,1,12/12/94,21,f,140,The herbs chopped Phil,Non-sensible,edin_semantics,emo_sem_emo_sem,1.25444776855875,2,1,1,1,775222.953943722,27,A
25,1,12/12/94,21,f,141,The table wiped Beth,Non-sensible,edin_semantics,emo_sem_emo_sem,2.1841545519419,1,2,2,1,775225.882451648,40,A
25,1,12/12/94,21,f,142,The money offered Matt,Non-sensible,edin_semantics,emo_sem_emo_sem,1.30152907280717,2,1,1,1,775227.928862644,9,A
25,1,12/12/94,21,f,143,Luke fixed the radio,Sensible,edin_semantics,emo_sem_emo_sem,1.46620651648846,1,2,2,1,775230.139955894,112,A
25,1,12/12/94,21,f,144,The bill paid Mike,Non-sensible,edin_semantics,emo_sem_emo_sem,0.913353825337254,2,1,1,1,775231.798254183,59,A
25,1,12/12/94,21,f,145,Erin tidied the garage,Sensible,edin_semantics,emo_sem_emo_sem,2.13709249091335,1,1,1,1,775234.679819677,77,A
25,1,12/12/94,21,f,146,The scarf knitted Tom,Non-sensible,edin_semantics,emo_sem_emo_sem,1.56047432171181,2,2,2,1,775236.984965529,66,A
25,1,12/12/94,21,f,147,Ian labeled the box,Sensible,edin_semantics,emo_sem_emo_sem,2.86667566816323,1,2,2,1,775240.59563857,136,A
25,1,12/12/94,21,f,148,The room searched Jen,Non-sensible,edin_semantics,emo_sem_emo_sem,8.13505654968321,1,2,2,1,775249.475332973,10,A
25,1,12/12/94,21,f,149,Joe entered the office,Sensible,edin_semantics,emo_sem_emo_sem,3.19545710540842,2,1,1,1,775253.415341658,133,A
25,1,12/12/94,21,f,150,Liam mixed the nuts,Sensible,edin_semantics,emo_sem_emo_sem,1.8426404632628,2,1,1,1,775256.002785468,83,A
25,1,12/12/94,21,f,151,Eve taught the lesson,Sensible,edin_semantics,emo_sem_emo_sem,6.52852498809807,1,2,2,1,775274.009152115,15,B
25,1,12/12/94,21,f,152,The socks knitted Ryan,Non-sensible,edin_semantics,emo_sem_emo_sem,1.29892192606349,1,2,2,1,775276.055599673,141,B
25,1,12/12/94,21,f,153,The report filed Ian,Non-sensible,edin_semantics,emo_sem_emo_sem,2.14868369395845,2,2,2,1,775278.948824683,99,B
25,1,12/12/94,21,f,154,Jen searched the room,Sensible,edin_semantics,emo_sem_emo_sem,3.0301035803277,1,1,1,1,775282.724176772,10,B
25,1,12/12/94,21,f,155,Tom knitted the scarf,Sensible,edin_semantics,emo_sem_emo_sem,2.13679903058801,2,1,1,1,775285.605649577,66,B
25,1,12/12/94,21,f,156,Joe wore the jumper,Sensible,edin_semantics,emo_sem_emo_sem,2.19531438418198,1,2,2,1,775288.545975135,25,B
25,1,12/12/94,21,f,157,The steak ate Mike,Non-sensible,edin_semantics,emo_sem_emo_sem,2.38392023264896,2,1,1,1,775291.674421931,142,B
25,1,12/12/94,21,f,158,The onion sliced Liam,Non-sensible,edin_semantics,emo_sem_emo_sem,1.90139988611918,2,1,1,1,775294.320713683,78,B
25,1,12/12/94,21,f,159,Phil chopped the herbs,Sensible,edin_semantics,emo_sem_emo_sem,2.58344408927951,1,2,2,1,775297.649111858,27,B
25,1,12/12/94,21,f,160,Jen weighed the flour,Sensible,edin_semantics,emo_sem_emo_sem,3.11242257780395,1,1,1,1,775301.506771718,64,B
25,1,12/12/94,21,f,161,Lily dented the lorry,Sensible,edin_semantics,emo_sem_emo_sem,1.65460068860557,1,2,2,1,775303.906047144,71,B
25,1,12/12/94,21,f,162,Will licked the spoon,Sensible,edin_semantics,emo_sem_emo_sem,1.38321945571806,2,2,2,1,775306.034820114,21,B
25,1,12/12/94,21,f,163,The fat chewed Adam,Non-sensible,edin_semantics,emo_sem_emo_sem,1.98390586429741,1,1,1,1,775308.763410016,106,B
25,1,12/12/94,21,f,164,Lily got the kettle,Sensible,edin_semantics,emo_sem_emo_sem,2.63052571413573,2,2,2,1,775312.138852612,13,B
25,1,12/12/94,21,f,165,The internet searched Max,Non-sensible,edin_semantics,emo_sem_emo_sem,1.45461210631765,2,2,2,1,775314.338195581,85,B
25,1,12/12/94,21,f,166,The curtains measured Rob,Non-sensible,edin_semantics,emo_sem_emo_sem,1.25367226346862,2,1,1,1,775316.337613151,126,B
25,1,12/12/94,21,f,167,Rob mailed the parcel,Sensible,edin_semantics,emo_sem_emo_sem,1.80701437604148,1,1,1,1,775318.889775969,14,B
25,1,12/12/94,21,f,168,The problem solved Phil,Non-sensible,edin_semantics,emo_sem_emo_sem,1.97195449087303,2,2,2,1,775321.606639645,109,B
25,1,12/12/94,21,f,169,The ticket took Tim,Non-sensible,edin_semantics,emo_sem_emo_sem,1.17184749804437,1,1,1,1,775323.52366862,128,B
25,1,12/12/94,21,f,170,Tom dialed the number,Sensible,edin_semantics,emo_sem_emo_sem,1.27828156028409,2,2,2,1,775325.546607919,63,B
25,1,12/12/94,21,f,171,Ryan entered the room,Sensible,edin_semantics,emo_sem_emo_sem,1.37238291092217,1,1,1,1,775327.663688338,58,B
25,1,12/12/94,21,f,172,Jon cut the paper,Sensible,edin_semantics,emo_sem_emo_sem,1.40761579328682,2,1,1,1,775329.815900612,20,B
25,1,12/12/94,21,f,173,Sam tidied the room,Sensible,edin_semantics,emo_sem_emo_sem,1.336891526822,1,1,1,1,775331.897645839,2,B
25,1,12/12/94,21,f,174,Phil sniffed the milk,Sensible,edin_semantics,emo_sem_emo_sem,1.16027682134882,1,1,1,1,775333.802950832,18,B
25,1,12/12/94,21,f,175,Jack mixed the fruits,Sensible,edin_semantics,emo_sem_emo_sem,1.44238747807685,1,1,1,1,775335.990560198,8,B
25,1,12/12/94,21,f,176,The perfume sniffed Tim,Non-sensible,edin_semantics,emo_sem_emo_sem,1.33700859011151,2,2,2,1,775338.072264372,93,B
25,1,12/12/94,21,f,177,The lemon squeezed Jay,Non-sensible,edin_semantics,emo_sem_emo_sem,1.18422928010114,1,1,1,1,775340.001110659,76,B
25,1,12/12/94,21,f,178,Andy grated the cheese,Sensible,edin_semantics,emo_sem_emo_sem,3.54787156241946,1,2,2,1,775344.293904876,65,B
25,1,12/12/94,21,f,179,The office entered Joe,Non-sensible,edin_semantics,emo_sem_emo_sem,2.11314644664526,2,2,2,1,775347.151886742,133,B
25,1,12/12/94,21,f,180,The hair brushed Dan,Non-sensible,edin_semantics,emo_sem_emo_sem,1.85473936866038,2,2,2,1,775349.751127337,147,B
25,1,12/12/94,21,f,181,Sean read the book,Sensible,edin_semantics,emo_sem_emo_sem,0.984088675701059,2,1,1,1,775351.479985042,4,B
25,1,12/12/94,21,f,182,The trophy polished Anna,Non-sensible,edin_semantics,emo_sem_emo_sem,0.91320821759291,2,1,1,1,775353.138335608,104,B
25,1,12/12/94,21,f,183,Tim pulled the handle,Sensible,edin_semantics,emo_sem_emo_sem,1.40724760480225,2,2,2,1,775355.290611706,73,B
25,1,12/12/94,21,f,184,Mark washed the dishes,Sensible,edin_semantics,emo_sem_emo_sem,1.52515869308263,1,2,2,1,775357.560538466,57,B
25,1,12/12/94,21,f,185,Dan carried the folder,Sensible,edin_semantics,emo_sem_emo_sem,2.20704927050974,1,1,1,1,775360.512604042,30,B
25,1,12/12/94,21,f,186,Mary iced the cake,Sensible,edin_semantics,emo_sem_emo_sem,1.11314259795472,2,1,1,1,775362.3708226,44,B
25,1,12/12/94,21,f,187,The pan washed Beth,Non-sensible,edin_semantics,emo_sem_emo_sem,2.05452589632478,2,1,1,1,775365.169978653,132,B
25,1,12/12/94,21,f,188,Beth wiped the table,Sensible,edin_semantics,emo_sem_emo_sem,1.25422069756314,2,1,1,1,775367.169389166,40,B
25,1,12/12/94,21,f,189,Matt kicked the bike,Sensible,edin_semantics,emo_sem_emo_sem,1.81901963066775,1,2,2,1,775369.733355827,39,B
25,1,12/12/94,21,f,190,The salt passed Leo,Non-sensible,edin_semantics,emo_sem_emo_sem,1.4897481307853,1,1,1,1,775371.967969203,118,B
25,1,12/12/94,21,f,191,Carl brushed the teeth,Sensible,edin_semantics,emo_sem_emo_sem,1.96031068952288,1,1,1,1,775374.673036734,72,B
25,1,12/12/94,21,f,192,The candy sucked Sam,Non-sensible,edin_semantics,emo_sem_emo_sem,1.34867195563857,1,2,2,1,775376.766540901,87,B
25,1,12/12/94,21,f,193,The bath cleaned Jack,Non-sensible,edin_semantics,emo_sem_emo_sem,1.18371933256276,2,1,1,1,775378.695354795,80,B
25,1,12/12/94,21,f,194,The church described Erin,Non-sensible,edin_semantics,emo_sem_emo_sem,1.36058195587248,2,2,2,1,775380.800586151,117,B
25,1,12/12/94,21,f,195,Luke swallowed the pill,Sensible,edin_semantics,emo_sem_emo_sem,2.17158129916061,1,1,1,1,775383.717361435,22,B
25,1,12/12/94,21,f,196,Kate lifted the box,Sensible,edin_semantics,emo_sem_emo_sem,1.25459273473825,1,2,2,1,775385.716768421,69,B
25,1,12/12/94,21,f,197,Ben chewed the toffee,Sensible,edin_semantics,emo_sem_emo_sem,1.47800843371078,2,2,2,1,775387.939630234,31,B
25,1,12/12/94,21,f,198,The hospital visited Tom,Non-sensible,edin_semantics,emo_sem_emo_sem,1.70094272936694,2,2,2,1,775390.385982152,91,B
25,1,12/12/94,21,f,199,The radio got Ben,Non-sensible,edin_semantics,emo_sem_emo_sem,1.642558871652,2,1,1,1,775392.773449246,88,B
25,1,12/12/94,21,f,200,The monitor punched Erin,Non-sensible,edin_semantics,emo_sem_emo_sem,1.79558706190437,2,2,2,1,775395.313874934,125,B
25,1,12/12/94,21,f,201,The kettle carried John,Non-sensible,edin_semantics,emo_sem_emo_sem,1.38264247740153,2,2,2,1,775397.442660412,105,B
25,1,12/12/94,21,f,202,Tim cleaned the floor,Sensible,edin_semantics,emo_sem_emo_sem,2.30082701297943,1,2,2,1,775400.488784362,5,B
25,1,12/12/94,21,f,203,The bed sold Jay,Non-sensible,edin_semantics,emo_sem_emo_sem,1.7488591929432,2,2,2,1,775402.982145423,113,B
25,1,12/12/94,21,f,204,The plants watered Luke,Non-sensible,edin_semantics,emo_sem_emo_sem,1.83115862635896,2,2,2,1,775405.558079813,129,B
25,1,12/12/94,21,f,205,The hotline dialed Hugh,Non-sensible,edin_semantics,emo_sem_emo_sem,1.33649511472322,2,1,1,1,775407.639597327,138,B
25,1,12/12/94,21,f,206,Beth took the photo,Sensible,edin_semantics,emo_sem_emo_sem,1.84290377574507,2,2,2,1,775410.227038571,53,B
25,1,12/12/94,21,f,207,Erin posted the card,Sensible,edin_semantics,emo_sem_emo_sem,1.20771252305713,2,1,1,1,775412.179400494,36,B
25,1,12/12/94,21,f,208,Phil passed the towels,Sensible,edin_semantics,emo_sem_emo_sem,1.91303663153667,1,2,2,1,775414.837420076,43,B
25,1,12/12/94,21,f,209,Matt drank the juice,Sensible,edin_semantics,emo_sem_emo_sem,1.57179675996304,2,1,1,1,775417.154402162,60,B
25,1,12/12/94,21,f,210,The cream whisked Tom,Non-sensible,edin_semantics,emo_sem_emo_sem,2.23091417236719,2,2,2,1,775420.129985619,137,B
25,1,12/12/94,21,f,211,The turnip mashed Ella,Non-sensible,edin_semantics,emo_sem_emo_sem,2.41858800349291,2,2,2,1,775423.29376408,103,B
25,1,12/12/94,21,f,212,The crate lifted Amy,Non-sensible,edin_semantics,emo_sem_emo_sem,1.19584132998716,2,1,1,1,775425.23430837,144,B
25,1,12/12/94,21,f,213,Jon jumped the fence,Sensible,edin_semantics,emo_sem_emo_sem,1.41925253882073,1,2,2,1,775427.398376763,17,B
25,1,12/12/94,21,f,214,The gift posted Jack,Non-sensible,edin_semantics,emo_sem_emo_sem,1.38374992937315,2,2,2,1,775429.527119265,111,B
25,1,12/12/94,21,f,215,The invite mailed Ian,Non-sensible,edin_semantics,emo_sem_emo_sem,2.10137948824558,2,2,2,1,775432.373326153,89,B
25,1,12/12/94,21,f,216,The car lent Fred,Non-sensible,edin_semantics,emo_sem_emo_sem,2.98353158216923,1,1,1,1,775436.101631255,94,B
25,1,12/12/94,21,f,217,Max lent the bucket,Sensible,edin_semantics,emo_sem_emo_sem,3.30088153562974,2,2,2,1,775440.147455651,19,B
25,1,12/12/94,21,f,218,The party cancelled Phil,Non-sensible,edin_semantics,emo_sem_emo_sem,1.26658067048993,2,1,1,1,775442.158639858,82,B
25,1,12/12/94,21,f,219,Jen fixed the laptop,Sensible,edin_semantics,emo_sem_emo_sem,1.51363708660938,2,2,2,1,775444.416763738,37,B
25,1,12/12/94,21,f,220,The bowl dented Ian,Non-sensible,edin_semantics,emo_sem_emo_sem,1.30190399638377,2,1,1,1,775446.463219635,146,B
25,1,12/12/94,21,f,221,Phil typed the letter,Sensible,edin_semantics,emo_sem_emo_sem,1.59567769779824,2,2,2,1,775448.803702604,49,B
25,1,12/12/94,21,f,222,The report wrote Alex,Non-sensible,edin_semantics,emo_sem_emo_sem,3.57129579258617,1,2,2,1,775453.120047736,149,B
25,1,12/12/94,21,f,223,Will mashed the potatoes,Sensible,edin_semantics,emo_sem_emo_sem,1.24293033150025,1,1,1,1,775455.107675576,28,B
25,1,12/12/94,21,f,224,The garage tidied Erin,Non-sensible,edin_semantics,emo_sem_emo_sem,1.44295643828809,2,2,2,1,775457.295264095,77,B
25,1,12/12/94,21,f,225,The portrait painted Jay,Non-sensible,edin_semantics,emo_sem_emo_sem,1.63121847307775,1,1,1,1,775459.67100849,110,B
25,1,12/12/94,21,f,226,Erin crushed the garlic,Sensible,edin_semantics,emo_sem_emo_sem,1.92461853357963,1,1,1,1,775462.340807859,6,B
25,1,12/12/94,21,f,227,Leah sucked the lolly,Sensible,edin_semantics,emo_sem_emo_sem,1.13627882010769,1,1,1,1,775464.222570918,12,B
25,1,12/12/94,21,f,228,Dan whisked the eggs,Sensible,edin_semantics,emo_sem_emo_sem,1.00754914747085,2,1,1,1,775465.975021873,62,B
25,1,12/12/94,21,f,229,Amy measured the thread,Sensible,edin_semantics,emo_sem_emo_sem,1.39575871208217,1,2,2,1,775468.11553005,51,B
25,1,12/12/94,21,f,230,Carl sold the sofa,Sensible,edin_semantics,emo_sem_emo_sem,1.46706701291259,2,1,1,1,775470.326641903,38,B
25,1,12/12/94,21,f,231,The message typed Eve,Non-sensible,edin_semantics,emo_sem_emo_sem,1.66610946611036,1,1,1,1,775472.737672099,124,B
25,1,12/12/94,21,f,232,The carrots grated Tom,Non-sensible,edin_semantics,emo_sem_emo_sem,0.972775217727758,2,1,1,1,775474.454798125,140,B
25,1,12/12/94,21,f,233,The gum swallowed Owen,Non-sensible,edin_semantics,emo_sem_emo_sem,2.27809810754843,1,2,2,1,775477.477475715,97,B
25,1,12/12/94,21,f,234,Jeff watered the garden,Sensible,edin_semantics,emo_sem_emo_sem,1.12494130793493,1,1,1,1,775479.347465721,54,B
25,1,12/12/94,21,f,235,The dessert served Fred,Non-sensible,edin_semantics,emo_sem_emo_sem,2.19566332944669,2,2,2,1,775482.287751831,145,B
25,1,12/12/94,21,f,236,The sugar weighed Liz,Non-sensible,edin_semantics,emo_sem_emo_sem,1.96046527731232,2,2,2,1,775484.992825456,139,B
25,1,12/12/94,21,f,237,Ella watched the movie,Sensible,edin_semantics,emo_sem_emo_sem,1.30181451502722,2,2,2,1,775487.039299954,33,B
25,1,12/12/94,21,f,238,The trousers ironed Eve,Non-sensible,edin_semantics,emo_sem_emo_sem,1.51337986788712,2,1,1,1,775489.297414213,130,B
25,1,12/12/94,21,f,239,The pillow hugged Kate,Non-sensible,edin_semantics,emo_sem_emo_sem,3.44222968292888,1,1,1,1,775493.484398172,86,B
25,1,12/12/94,21,f,240,The button pushed Ian,Non-sensible,edin_semantics,emo_sem_emo_sem,2.76000074401964,2,2,2,1,775496.989242994,101,B
25,1,12/12/94,21,f,241,The shed built Rose,Non-sensible,edin_semantics,emo_sem_emo_sem,1.78432556067128,2,2,2,1,775499.517911345,121,B
25,1,12/12/94,21,f,242,Mike paid the bill,Sensible,edin_semantics,emo_sem_emo_sem,2.31325241306331,2,2,2,1,775502.575778199,59,B
25,1,12/12/94,21,f,243,Luke climbed the hill,Sensible,edin_semantics,emo_sem_emo_sem,1.30178629164584,2,1,1,1,775504.622253019,68,B
25,1,12/12/94,21,f,244,Bill counted the sheets,Sensible,edin_semantics,emo_sem_emo_sem,1.96015385654755,1,1,1,1,775507.327288798,48,B
25,1,12/12/94,21,f,245,Liz scrubbed the bowl,Sensible,edin_semantics,emo_sem_emo_sem,2.19513445941266,1,1,1,1,775510.267669521,56,B
25,1,12/12/94,21,f,246,Josh ironed the shirt,Sensible,edin_semantics,emo_sem_emo_sem,1.8661272340687,1,2,2,1,775512.878548786,55,B
25,1,12/12/94,21,f,247,Kate built the house,Sensible,edin_semantics,emo_sem_emo_sem,1.23089524975512,1,1,1,1,775514.854450719,46,B
25,1,12/12/94,21,f,248,The beer drank Jack,Non-sensible,edin_semantics,emo_sem_emo_sem,3.12464303674642,1,2,2,1,775518.723854767,135,B
25,1,12/12/94,21,f,249,The poster read Luke,Non-sensible,edin_semantics,emo_sem_emo_sem,2.2306082037976,2,2,2,1,775521.699459392,79,B
25,1,12/12/94,21,f,250,The rope pulled Emma,Non-sensible,edin_semantics,emo_sem_emo_sem,2.63048754830379,1,1,1,1,775525.074886272,120,B
25,1,12/12/94,21,f,251,The rope pulled Andy,Non-sensible,edin_semantics,emo_sem_emo_sem,1.64260248991195,1,1,1,1,775527.462396984,148,B
25,1,12/12/94,21,f,252,The ribbon cut Lucy,Non-sensible,edin_semantics,emo_sem_emo_sem,1.67787866969593,2,2,2,1,775529.885214986,95,B
25,1,12/12/94,21,f,253,Jake dusted the shelf,Sensible,edin_semantics,emo_sem_emo_sem,1.81914022204001,1,2,2,1,775532.449172987,47,B
25,1,12/12/94,21,f,254,The box labeled Ian,Non-sensible,edin_semantics,emo_sem_emo_sem,2.50151605147403,1,1,1,1,775535.695237732,136,B
25,1,12/12/94,21,f,255,Ewan wrote the story,Sensible,edin_semantics,emo_sem_emo_sem,2.3131215586327,1,1,1,1,775538.753155581,74,B
25,1,12/12/94,21,f,256,Matt pushed the trolley,Sensible,edin_semantics,emo_sem_emo_sem,3.74781524378341,1,1,1,1,775543.245909515,26,B
25,1,12/12/94,21,f,257,The dress wore Kate,Non-sensible,edin_semantics,emo_sem_emo_sem,1.14850505196955,1,1,1,1,775545.139468397,100,B
25,1,12/12/94,21,f,258,Ryan painted the picture,Sensible,edin_semantics,emo_sem_emo_sem,3.43073437572457,1,2,2,1,775549.314669041,35,B
25,1,12/12/94,21,f,259,Rob stroked the fur,Sensible,edin_semantics,emo_sem_emo_sem,1.38378264300991,1,2,2,1,775551.443430144,41,B
25,1,12/12/94,21,f,260,Liz sliced the tomato,Sensible,edin_semantics,emo_sem_emo_sem,1.31337653240189,1,2,2,1,775553.501649151,3,B
25,1,12/12/94,21,f,261,Jane punched the wall,Sensible,edin_semantics,emo_sem_emo_sem,1.00785511592403,2,1,1,1,775555.254060978,50,B
25,1,12/12/94,21,f,262,Max kissed the mirror,Sensible,edin_semantics,emo_sem_emo_sem,1.17196841014083,1,2,2,1,775557.171125554,23,B
25,1,12/12/94,21,f,263,Josh squeezed the ball,Sensible,edin_semantics,emo_sem_emo_sem,1.31351315986831,1,2,2,1,775559.229328203,1,B
25,1,12/12/94,21,f,264,Matt offered the money,Sensible,edin_semantics,emo_sem_emo_sem,1.23090487136506,2,2,2,1,775561.205206083,9,B
25,1,12/12/94,21,f,265,Leo stored the wine,Sensible,edin_semantics,emo_sem_emo_sem,1.48960765474476,1,1,1,1,775563.439844476,52,B
25,1,12/12/94,21,f,266,The rose kissed Hugh,Non-sensible,edin_semantics,emo_sem_emo_sem,1.20696427929215,1,1,1,1,775565.392200305,98,B
25,1,12/12/94,21,f,267,John described the pen,Sensible,edin_semantics,emo_sem_emo_sem,2.99515870586038,1,1,1,1,775569.13226595,42,B
25,1,12/12/94,21,f,268,Lara filed the papers,Sensible,edin_semantics,emo_sem_emo_sem,2.83068299607839,1,1,1,1,775572.707664415,24,B
25,1,12/12/94,21,f,269,Ryan carried the gun,Sensible,edin_semantics,emo_sem_emo_sem,2.91291571944021,2,2,2,1,775576.365359106,75,B
25,1,12/12/94,21,f,270,Hugh pulled the lever,Sensible,edin_semantics,emo_sem_emo_sem,1.69011676835362,1,2,2,1,775578.799939897,45,B
25,1,12/12/94,21,f,271,The desk wiped Lucy,Non-sensible,edin_semantics,emo_sem_emo_sem,3.606686149491,2,2,2,1,775583.151595206,115,B
25,1,12/12/94,21,f,272,The hedge jumped Sara,Non-sensible,edin_semantics,emo_sem_emo_sem,2.36010247690137,1,1,1,1,775586.256506802,92,B
25,1,12/12/94,21,f,273,Amy hugged the tree,Sensible,edin_semantics,emo_sem_emo_sem,3.12475913797971,1,2,2,1,775590.12594645,11,B
25,1,12/12/94,21,f,274,Jon polished the coins,Sensible,edin_semantics,emo_sem_emo_sem,2.4074390756432,1,2,2,1,775593.277920748,29,B
25,1,12/12/94,21,f,275,Ian cancelled the plans,Sensible,edin_semantics,emo_sem_emo_sem,1.74881332973018,1,2,2,1,775595.77129111,7,B
25,1,12/12/94,21,f,276,The pot scrubbed Josh,Non-sensible,edin_semantics,emo_sem_emo_sem,4.83013969357125,2,2,2,1,775601.346066413,131,B
25,1,12/12/94,21,f,277,The radio fixed Luke,Non-sensible,edin_semantics,emo_sem_emo_sem,1.97194615204353,2,1,1,1,775604.062938747,112,B
25,1,12/12/94,21,f,278,The plate licked Jane,Non-sensible,edin_semantics,emo_sem_emo_sem,1.65494706807658,2,1,1,1,775606.462194288,96,B
25,1,12/12/94,21,f,279,The wallet carried Leo,Non-sensible,edin_semantics,emo_sem_emo_sem,1.46627258521039,2,1,1,1,775608.673279841,150,B
25,1,12/12/94,21,f,280,The debt paid Zoe,Non-sensible,edin_semantics,emo_sem_emo_sem,1.65517798776273,2,1,1,1,775611.07258766,134,B
25,1,12/12/94,21,f,281,The nuts mixed Liam,Non-sensible,edin_semantics,emo_sem_emo_sem,1.4663861207664,1,2,2,1,775613.283688608,83,B
25,1,12/12/94,21,f,282,The blanket stroked Ryan,Non-sensible,edin_semantics,emo_sem_emo_sem,1.47825218224898,2,1,1,1,775615.506578964,116,B
25,1,12/12/94,21,f,283,Mary visited the museum,Sensible,edin_semantics,emo_sem_emo_sem,1.23091032356024,2,1,1,1,775617.482416112,16,B
25,1,12/12/94,21,f,284,The carrots chopped Fred,Non-sensible,edin_semantics,emo_sem_emo_sem,1.53680249443278,1,1,1,1,775619.764107265,102,B
25,1,12/12/94,21,f,285,The house dusted Alex,Non-sensible,edin_semantics,emo_sem_emo_sem,1.80765517801046,2,1,1,1,775622.316264952,122,B
25,1,12/12/94,21,f,286,The donut iced Joe,Non-sensible,edin_semantics,emo_sem_emo_sem,3.5012030270882,2,2,2,1,775626.562053876,119,B
25,1,12/12/94,21,f,287,The rice stored Fred,Non-sensible,edin_semantics,emo_sem_emo_sem,1.45483789441641,2,2,2,1,775628.761379206,127,B
25,1,12/12/94,21,f,288,The ice crushed Josh,Non-sensible,edin_semantics,emo_sem_emo_sem,1.41942220064811,2,2,2,1,775630.925445354,81,B
25,1,12/12/94,21,f,289,Tim ate the ham,Sensible,edin_semantics,emo_sem_emo_sem,1.8193871777039,1,2,2,1,775633.489390205,67,B
25,1,12/12/94,21,f,290,The sweets offered Tom,Non-sensible,edin_semantics,emo_sem_emo_sem,1.1716181820957,2,1,1,1,775635.406454139,84,B
25,1,12/12/94,21,f,291,The rules taught Josh,Non-sensible,edin_semantics,emo_sem_emo_sem,2.57168386597186,1,1,1,1,775638.723088563,90,B
25,1,12/12/94,21,f,292,The opera watched Adam,Non-sensible,edin_semantics,emo_sem_emo_sem,1.31311482342426,1,1,1,1,775640.78149006,108,B
25,1,12/12/94,21,f,293,The shoes counted Lucy,Non-sensible,edin_semantics,emo_sem_emo_sem,2.00647697481327,2,2,2,1,775643.533418881,123,B
25,1,12/12/94,21,f,294,Jon trimmed the bushes,Sensible,edin_semantics,emo_sem_emo_sem,1.65521807793994,2,1,1,1,775645.932778014,32,B
25,1,12/12/94,21,f,295,The door kicked Max,Non-sensible,edin_semantics,emo_sem_emo_sem,1.12604555278085,2,1,1,1,775647.802717026,114,B
25,1,12/12/94,21,f,296,Joe solved the puzzle,Sensible,edin_semantics,emo_sem_emo_sem,1.24405029171612,1,1,1,1,775649.790370523,34,B
25,1,12/12/94,21,f,297,The stairs climbed Ben,Non-sensible,edin_semantics,emo_sem_emo_sem,1.2204044428654,1,2,2,1,775651.754533081,143,B
25,1,12/12/94,21,f,298,The hair trimmed Bill,Non-sensible,edin_semantics,emo_sem_emo_sem,1.24292552075349,2,2,2,1,775653.742148412,107,B
25,1,12/12/94,21,f,299,Kate served the dish,Sensible,edin_semantics,emo_sem_emo_sem,0.949577737832442,2,1,1,1,775655.435771951,70,B
25,1,12/12/94,21,f,300,Liz labeled the jar,Sensible,edin_semantics,emo_sem_emo_sem,2.44333841779735,2,2,2,1,775658.623018902,61,B
