subject_column,AssignedList_column,subject_dob_column,subject_age_column,subject_gender_column,trialnum_column,Stim_column,Type_column,Experiment_column,OrderGroup_column,ReactionTime_column,StimSide_column,StimPosition_column,Response_column,Valid_column,TrialEndSecs_column,PairID_column,List_column
26,2,13/10/96,19,m,1,Joe iced the donut,Sensible,edin_semantics,sem_emo_sem_emo,1.80300535471179,2,2,2,1,782736.990849168,119,A
26,2,13/10/96,19,m,2,Ian dented the bowl,Sensible,edin_semantics,sem_emo_sem_emo,0.832513675559312,2,1,1,1,782738.566920828,146,A
26,2,13/10/96,19,m,3,Ryan stroked the blanket,Sensible,edin_semantics,sem_emo_sem_emo,0.843467925209552,1,1,1,1,782740.154603896,116,A
26,2,13/10/96,19,m,4,The sheets counted Bill,Non-sensible,edin_semantics,sem_emo_sem_emo,1.22101670061238,2,1,1,1,782742.118721552,48,A
26,2,13/10/96,19,m,5,The dishes washed Mark,Non-sensible,edin_semantics,sem_emo_sem_emo,0.620850502629764,1,2,1,0,782743.483035746,57,A
26,2,13/10/96,19,m,6,Adam watched the opera,Sensible,edin_semantics,sem_emo_sem_emo,0.762577101471834,2,1,1,1,782744.988464603,108,A
26,2,13/10/96,19,m,7,Jack cleaned the bath,Sensible,edin_semantics,sem_emo_sem_emo,1.1859845899744,2,1,1,1,782746.917287156,80,A
26,2,13/10/96,19,m,8,The milk sniffed Phil,Non-sensible,edin_semantics,sem_emo_sem_emo,0.832988023059443,2,1,1,1,782748.493269334,18,A
26,2,13/10/96,19,m,9,Liam mixed the nuts,Sensible,edin_semantics,sem_emo_sem_emo,1.17432571470272,1,2,2,1,782750.410401903,83,A
26,2,13/10/96,19,m,10,The herbs chopped Phil,Non-sensible,edin_semantics,sem_emo_sem_emo,0.786243797163479,1,2,2,1,782751.939352488,27,A
26,2,13/10/96,19,m,11,Luke read the poster,Sensible,edin_semantics,sem_emo_sem_emo,0.962415906833485,1,2,2,1,782753.644675635,79,A
26,2,13/10/96,19,m,12,The tomato sliced Liz,Non-sensible,edin_semantics,sem_emo_sem_emo,0.997760079684667,2,2,1,0,782755.385311203,3,A
26,2,13/10/96,19,m,13,Ben climbed the stairs,Sensible,edin_semantics,sem_emo_sem_emo,0.844548436696641,1,2,2,1,782756.973084393,143,A
26,2,13/10/96,19,m,14,Jack drank the beer,Sensible,edin_semantics,sem_emo_sem_emo,0.856353881768882,1,2,2,1,782758.572599526,135,A
26,2,13/10/96,19,m,15,The towels passed Phil,Non-sensible,edin_semantics,sem_emo_sem_emo,0.915343903470784,1,2,2,1,782760.230937585,43,A
26,2,13/10/96,19,m,16,Leo passed the salt,Sensible,edin_semantics,sem_emo_sem_emo,1.0797269246541,1,1,1,1,782762.053917808,118,A
26,2,13/10/96,19,m,17,The juice drank Matt,Non-sensible,edin_semantics,sem_emo_sem_emo,0.927066281670704,2,1,1,1,782763.723996205,60,A
26,2,13/10/96,19,m,18,Ian filed the report,Sensible,edin_semantics,sem_emo_sem_emo,1.09189799253363,2,2,2,1,782765.558727351,99,A
26,2,13/10/96,19,m,19,Eve typed the message,Sensible,edin_semantics,sem_emo_sem_emo,0.773652584059164,2,1,1,1,782767.07592958,124,A
26,2,13/10/96,19,m,20,The bucket lent Max,Non-sensible,edin_semantics,sem_emo_sem_emo,1.10356616869103,1,2,2,1,782768.922935386,19,A
26,2,13/10/96,19,m,21,The ball squeezed Josh,Non-sensible,edin_semantics,sem_emo_sem_emo,0.868289539823309,1,2,2,1,782770.533713944,1,A
26,2,13/10/96,19,m,22,Jay painted the portrait,Sensible,edin_semantics,sem_emo_sem_emo,0.973991715116426,2,1,1,1,782772.250850875,110,A
26,2,13/10/96,19,m,23,Tim sniffed the perfume,Sensible,edin_semantics,sem_emo_sem_emo,1.09158560959622,2,2,1,0,782774.085612489,93,A
26,2,13/10/96,19,m,24,The lolly sucked Leah,Non-sensible,edin_semantics,sem_emo_sem_emo,0.891252892906778,2,1,1,1,782775.720364353,12,A
26,2,13/10/96,19,m,25,The hill climbed Luke,Non-sensible,edin_semantics,sem_emo_sem_emo,0.867873884504661,2,1,1,1,782777.331696797,68,A
26,2,13/10/96,19,m,26,Mike ate the steak,Sensible,edin_semantics,sem_emo_sem_emo,0.890617543249391,1,1,1,1,782778.966469829,142,A
26,2,13/10/96,19,m,27,Liam sliced the onion,Sensible,edin_semantics,sem_emo_sem_emo,1.02076159860007,1,1,1,1,782780.730669141,78,A
26,2,13/10/96,19,m,28,Tom grated the carrots,Sensible,edin_semantics,sem_emo_sem_emo,0.902816834626719,2,1,1,1,782782.377217791,140,A
26,2,13/10/96,19,m,29,Tom whisked the cream,Sensible,edin_semantics,sem_emo_sem_emo,0.890697402879596,1,2,2,1,782784.012010386,137,A
26,2,13/10/96,19,m,30,Anna polished the trophy,Sensible,edin_semantics,sem_emo_sem_emo,0.761908076005057,1,1,1,1,782785.517447261,104,A
26,2,13/10/96,19,m,31,Leo carried the wallet,Sensible,edin_semantics,sem_emo_sem_emo,0.749917895300314,2,1,1,1,782787.011100499,150,A
26,2,13/10/96,19,m,32,The shelf dusted Jake,Non-sensible,edin_semantics,sem_emo_sem_emo,0.914763076463714,2,2,1,0,782788.669422201,47,A
26,2,13/10/96,19,m,33,The pill swallowed Luke,Non-sensible,edin_semantics,sem_emo_sem_emo,0.867297547636554,2,1,1,1,782790.280701085,22,A
26,2,13/10/96,19,m,34,The tree hugged Amy,Non-sensible,edin_semantics,sem_emo_sem_emo,1.12613375124056,2,2,1,0,782792.150738879,11,A
26,2,13/10/96,19,m,35,Luke fixed the radio,Sensible,edin_semantics,sem_emo_sem_emo,0.667224936187267,2,1,1,1,782793.562083703,112,A
26,2,13/10/96,19,m,36,Alex wrote the report,Sensible,edin_semantics,sem_emo_sem_emo,0.938187306630425,1,2,2,1,782795.243902439,149,A
26,2,13/10/96,19,m,37,The fence jumped Jon,Non-sensible,edin_semantics,sem_emo_sem_emo,1.05625234136824,2,2,1,0,782797.043367668,17,A
26,2,13/10/96,19,m,38,The wine stored Leo,Non-sensible,edin_semantics,sem_emo_sem_emo,0.879942000610754,2,1,1,1,782798.666409341,52,A
26,2,13/10/96,19,m,39,Sam sucked the candy,Sensible,edin_semantics,sem_emo_sem_emo,1.16154655849095,2,2,1,0,782800.571744162,87,A
26,2,13/10/96,19,m,40,Lucy counted the shoes,Sensible,edin_semantics,sem_emo_sem_emo,0.985671758069657,2,2,1,0,782802.300649975,123,A
26,2,13/10/96,19,m,41,The story wrote Ewan,Non-sensible,edin_semantics,sem_emo_sem_emo,0.809465972706676,2,1,1,1,782803.853110102,74,A
26,2,13/10/96,19,m,42,Dan brushed the hair,Sensible,edin_semantics,sem_emo_sem_emo,0.750617709942162,1,2,2,1,782805.346756606,147,A
26,2,13/10/96,19,m,43,Amy lifted the crate,Sensible,edin_semantics,sem_emo_sem_emo,1.02093190175947,1,1,1,1,782807.110963294,144,A
26,2,13/10/96,19,m,44,The museum visited Mary,Non-sensible,edin_semantics,sem_emo_sem_emo,0.974002940347418,1,1,1,1,782808.82806302,16,A
26,2,13/10/96,19,m,45,The floor cleaned Tim,Non-sensible,edin_semantics,sem_emo_sem_emo,0.832683657994494,2,2,1,0,782810.404094269,5,A
26,2,13/10/96,19,m,46,The laptop fixed Jen,Non-sensible,edin_semantics,sem_emo_sem_emo,1.00907065114006,2,2,1,0,782812.156511228,37,A
26,2,13/10/96,19,m,47,The jumper wore Joe,Non-sensible,edin_semantics,sem_emo_sem_emo,1.08009383024182,1,2,2,1,782813.979502035,25,A
26,2,13/10/96,19,m,48,The card posted Erin,Non-sensible,edin_semantics,sem_emo_sem_emo,0.762169464258477,1,1,1,1,782815.484879575,36,A
26,2,13/10/96,19,m,49,Josh taught the rules,Sensible,edin_semantics,sem_emo_sem_emo,0.832838566624559,2,1,1,1,782817.06090922,90,A
26,2,13/10/96,19,m,50,The sofa sold Carl,Non-sensible,edin_semantics,sem_emo_sem_emo,0.880188314942643,2,1,1,1,782818.683924274,38,A
26,2,13/10/96,19,m,51,The table wiped Beth,Non-sensible,edin_semantics,sem_emo_sem_emo,0.774023979785852,1,1,1,1,782820.20113837,40,A
26,2,13/10/96,19,m,52,The cheese grated Andy,Non-sensible,edin_semantics,sem_emo_sem_emo,0.820963845704682,2,2,1,0,782821.76539817,65,A
26,2,13/10/96,19,m,53,Emma pulled the rope,Sensible,edin_semantics,sem_emo_sem_emo,0.808746273280121,2,1,1,1,782823.317843865,120,A
26,2,13/10/96,19,m,54,The flour weighed Jen,Non-sensible,edin_semantics,sem_emo_sem_emo,1.2211193315452,1,1,1,1,782825.281943881,64,A
26,2,13/10/96,19,m,55,The fur stroked Rob,Non-sensible,edin_semantics,sem_emo_sem_emo,0.879993636859581,2,2,1,0,782826.904986517,41,A
26,2,13/10/96,19,m,56,The bowl scrubbed Liz,Non-sensible,edin_semantics,sem_emo_sem_emo,0.809284764924087,1,1,1,1,782828.457501809,56,A
26,2,13/10/96,19,m,57,The handle pulled Tim,Non-sensible,edin_semantics,sem_emo_sem_emo,0.820630615926348,2,2,1,0,782830.021687201,73,A
26,2,13/10/96,19,m,58,Beth washed the pan,Sensible,edin_semantics,sem_emo_sem_emo,0.762568121310323,1,1,1,1,782831.527124717,132,A
26,2,13/10/96,19,m,59,The bushes trimmed Jon,Non-sensible,edin_semantics,sem_emo_sem_emo,0.844941641553305,2,1,1,1,782833.114890531,32,A
26,2,13/10/96,19,m,60,Fred served the dessert,Sensible,edin_semantics,sem_emo_sem_emo,0.985802291776054,1,2,2,1,782834.843802438,145,A
26,2,13/10/96,19,m,61,The photo took Beth,Non-sensible,edin_semantics,sem_emo_sem_emo,0.596928833168931,1,2,2,1,782836.18452274,53,A
26,2,13/10/96,19,m,62,Ian pushed the button,Sensible,edin_semantics,sem_emo_sem_emo,1.58565322030336,2,2,1,0,782838.513331118,101,A
26,2,13/10/96,19,m,63,Max searched the internet,Sensible,edin_semantics,sem_emo_sem_emo,1.15059166739229,2,2,1,0,782840.4068188,85,A
26,2,13/10/96,19,m,64,The spoon licked Will,Non-sensible,edin_semantics,sem_emo_sem_emo,0.997587210615166,1,2,2,1,782842.147509532,21,A
26,2,13/10/96,19,m,65,The jar labeled Liz,Non-sensible,edin_semantics,sem_emo_sem_emo,0.668363498291001,1,2,2,1,782843.558788288,61,A
26,2,13/10/96,19,m,66,The lever pulled Hugh,Non-sensible,edin_semantics,sem_emo_sem_emo,0.891743597108871,1,2,2,1,782845.193626105,45,A
26,2,13/10/96,19,m,67,The mirror kissed Max,Non-sensible,edin_semantics,sem_emo_sem_emo,1.09155193378683,1,2,2,1,782847.028312991,23,A
26,2,13/10/96,19,m,68,Lucy wiped the desk,Sensible,edin_semantics,sem_emo_sem_emo,1.77412853506394,1,2,2,1,782849.545254794,115,A
26,2,13/10/96,19,m,69,The gun carried Ryan,Non-sensible,edin_semantics,sem_emo_sem_emo,0.891428327769972,1,2,2,1,782851.180040975,75,A
26,2,13/10/96,19,m,70,The toffee chewed Ben,Non-sensible,edin_semantics,sem_emo_sem_emo,1.71477064548526,2,2,1,0,782853.63810982,31,A
26,2,13/10/96,19,m,71,The coins polished Jon,Non-sensible,edin_semantics,sem_emo_sem_emo,1.03190314967651,2,2,1,0,782855.414058772,29,A
26,2,13/10/96,19,m,72,The fruits mixed Jack,Non-sensible,edin_semantics,sem_emo_sem_emo,0.926156073459424,2,1,1,1,782857.084132037,8,A
26,2,13/10/96,19,m,73,Zoe paid the debt,Sensible,edin_semantics,sem_emo_sem_emo,0.797297470620833,2,1,1,1,782858.62508467,134,A
26,2,13/10/96,19,m,74,The plans cancelled Ian,Non-sensible,edin_semantics,sem_emo_sem_emo,0.783574109780602,1,2,2,1,782860.153813638,7,A
26,2,13/10/96,19,m,75,The shirt ironed Josh,Non-sensible,edin_semantics,sem_emo_sem_emo,1.00945455499459,2,2,2,1,782861.906253047,55,A
26,2,13/10/96,19,m,76,Fred lent the car,Sensible,edin_semantics,sem_emo_sem_emo,1.37382263073232,2,1,1,1,782864.023218968,94,A
26,2,13/10/96,19,m,77,The ham ate Tim,Non-sensible,edin_semantics,sem_emo_sem_emo,1.02089501882438,2,2,2,1,782865.787389415,67,A
26,2,13/10/96,19,m,78,The paper cut Jon,Non-sensible,edin_semantics,sem_emo_sem_emo,1.77373404731043,1,1,1,1,782868.304320955,20,A
26,2,13/10/96,19,m,79,The wall punched Jane,Non-sensible,edin_semantics,sem_emo_sem_emo,0.831950488267466,2,1,1,1,782869.880284532,50,A
26,2,13/10/96,19,m,80,The bike kicked Matt,Non-sensible,edin_semantics,sem_emo_sem_emo,1.36153193365317,2,2,1,0,782871.985590615,39,A
26,2,13/10/96,19,m,81,The eggs whisked Dan,Non-sensible,edin_semantics,sem_emo_sem_emo,0.785453538992442,1,1,1,1,782873.51450079,62,A
26,2,13/10/96,19,m,82,The dish served Kate,Non-sensible,edin_semantics,sem_emo_sem_emo,0.961907242191955,1,1,1,1,782875.219886157,70,A
26,2,13/10/96,19,m,83,Max kicked the door,Sensible,edin_semantics,sem_emo_sem_emo,2.09056571463589,1,1,1,1,782878.054309409,114,A
26,2,13/10/96,19,m,84,Ben got the radio,Sensible,edin_semantics,sem_emo_sem_emo,0.891128773684613,1,1,1,1,782879.689112268,88,A
26,2,13/10/96,19,m,85,The lorry dented Lily,Non-sensible,edin_semantics,sem_emo_sem_emo,0.961873245658353,1,2,2,1,782881.394477429,71,A
26,2,13/10/96,19,m,86,The parcel mailed Rob,Non-sensible,edin_semantics,sem_emo_sem_emo,0.950093458290212,1,1,1,1,782883.088171527,14,A
26,2,13/10/96,19,m,87,Liz weighed the sugar,Sensible,edin_semantics,sem_emo_sem_emo,0.867203896865249,1,2,2,1,782884.699375042,139,A
26,2,13/10/96,19,m,88,Lucy cut the ribbon,Sensible,edin_semantics,sem_emo_sem_emo,0.949495312292129,2,2,2,1,782886.392955925,95,A
26,2,13/10/96,19,m,89,Rob measured the curtains,Sensible,edin_semantics,sem_emo_sem_emo,0.773735971655697,2,1,1,1,782887.910184774,126,A
26,2,13/10/96,19,m,90,The puzzle solved Joe,Non-sensible,edin_semantics,sem_emo_sem_emo,1.47916367335711,1,1,1,1,782890.133035041,34,A
26,2,13/10/96,19,m,91,The room entered Ryan,Non-sensible,edin_semantics,sem_emo_sem_emo,0.679388948250562,1,1,1,1,782891.556155163,58,A
26,2,13/10/96,19,m,92,The lesson taught Eve,Non-sensible,edin_semantics,sem_emo_sem_emo,0.880153677077033,1,2,2,1,782893.179174385,15,A
26,2,13/10/96,19,m,93,The movie watched Ella,Non-sensible,edin_semantics,sem_emo_sem_emo,0.868262920062989,1,2,2,1,782894.790454232,33,A
26,2,13/10/96,19,m,94,Kate hugged the pillow,Sensible,edin_semantics,sem_emo_sem_emo,0.84430565033108,1,1,1,1,782896.378287397,86,A
26,2,13/10/96,19,m,95,The thread measured Amy,Non-sensible,edin_semantics,sem_emo_sem_emo,1.00940484320745,2,2,1,0,782898.130624817,51,A
26,2,13/10/96,19,m,96,Erin tidied the garage,Sensible,edin_semantics,sem_emo_sem_emo,1.07988856849261,1,2,2,1,782899.953594136,77,A
26,2,13/10/96,19,m,97,The garden watered Jeff,Non-sensible,edin_semantics,sem_emo_sem_emo,0.962143293349072,2,1,1,1,782901.658963466,54,A
26,2,13/10/96,19,m,98,The potatoes mashed Will,Non-sensible,edin_semantics,sem_emo_sem_emo,0.797436022432521,1,1,1,1,782903.199754135,28,A
26,2,13/10/96,19,m,99,Phil solved the problem,Sensible,edin_semantics,sem_emo_sem_emo,0.985097666154616,2,2,1,0,782904.928576881,109,A
26,2,13/10/96,19,m,100,The scarf knitted Tom,Non-sensible,edin_semantics,sem_emo_sem_emo,0.809008302749135,2,1,1,1,782906.481093135,66,A
26,2,13/10/96,19,m,101,Jane licked the plate,Sensible,edin_semantics,sem_emo_sem_emo,0.985487343044952,2,1,1,1,782908.209955009,96,A
26,2,13/10/96,19,m,102,The teeth brushed Carl,Non-sensible,edin_semantics,sem_emo_sem_emo,0.950345224817283,2,1,1,1,782909.903591057,72,A
26,2,13/10/96,19,m,103,Ella mashed the turnip,Sensible,edin_semantics,sem_emo_sem_emo,0.796940186643042,2,2,1,0,782911.44427685,103,A
26,2,13/10/96,19,m,104,The kettle got Lily,Non-sensible,edin_semantics,sem_emo_sem_emo,0.867743992246687,2,2,1,0,782913.055568563,13,A
26,2,13/10/96,19,m,105,Andy pulled the rope,Sensible,edin_semantics,sem_emo_sem_emo,1.00888880190905,2,1,1,1,782914.807952166,148,A
26,2,13/10/96,19,m,106,The money offered Matt,Non-sensible,edin_semantics,sem_emo_sem_emo,1.38508798042312,1,2,2,1,782916.936756246,9,A
26,2,13/10/96,19,m,107,The book read Sean,Non-sensible,edin_semantics,sem_emo_sem_emo,1.57325059140567,1,1,1,1,782919.253672263,4,A
26,2,13/10/96,19,m,108,The room tidied Sam,Non-sensible,edin_semantics,sem_emo_sem_emo,0.891610818332992,2,1,1,1,782920.888492762,2,A
26,2,13/10/96,19,m,109,John carried the kettle,Sensible,edin_semantics,sem_emo_sem_emo,1.83200308657251,1,2,2,1,782923.464175065,105,A
26,2,13/10/96,19,m,110,The room searched Jen,Non-sensible,edin_semantics,sem_emo_sem_emo,1.31468379404396,1,1,1,1,782925.522380281,10,A
26,2,13/10/96,19,m,111,The garlic crushed Erin,Non-sensible,edin_semantics,sem_emo_sem_emo,0.832102831103839,1,1,1,1,782927.098374647,6,A
26,2,13/10/96,19,m,112,Owen swallowed the gum,Sensible,edin_semantics,sem_emo_sem_emo,0.973256620927714,2,2,1,0,782928.815512539,97,A
26,2,13/10/96,19,m,113,Sara jumped the hedge,Sensible,edin_semantics,sem_emo_sem_emo,1.00860977405682,2,1,1,1,782930.567940081,92,A
26,2,13/10/96,19,m,114,Ryan knitted the socks,Sensible,edin_semantics,sem_emo_sem_emo,0.985398182412609,2,2,1,0,782932.296828576,141,A
26,2,13/10/96,19,m,115,Joe entered the office,Sensible,edin_semantics,sem_emo_sem_emo,0.961533280671574,1,2,2,1,782934.002203037,133,A
26,2,13/10/96,19,m,116,Tom visited the hospital,Sensible,edin_semantics,sem_emo_sem_emo,1.6912344833836,2,2,1,0,782936.436734437,91,A
26,2,13/10/96,19,m,117,Josh scrubbed the pot,Sensible,edin_semantics,sem_emo_sem_emo,1.44392213132232,1,2,2,1,782938.624340596,131,A
26,2,13/10/96,19,m,118,Erin described the church,Sensible,edin_semantics,sem_emo_sem_emo,0.74968248559162,1,2,2,1,782940.118002815,117,A
26,2,13/10/96,19,m,119,Josh crushed the ice,Sensible,edin_semantics,sem_emo_sem_emo,0.808735689381137,1,2,2,1,782941.670462301,81,A
26,2,13/10/96,19,m,120,Adam chewed the fat,Sensible,edin_semantics,sem_emo_sem_emo,1.137814114918,2,1,1,1,782943.552275072,106,A
26,2,13/10/96,19,m,121,The folder carried Dan,Non-sensible,edin_semantics,sem_emo_sem_emo,0.749931686324999,2,1,1,1,782945.045924782,30,A
26,2,13/10/96,19,m,122,The bill paid Mike,Non-sensible,edin_semantics,sem_emo_sem_emo,1.16136214346625,1,2,2,1,782946.9512054,59,A
26,2,13/10/96,19,m,123,Hugh dialed the hotline,Sensible,edin_semantics,sem_emo_sem_emo,0.879738663090393,2,1,1,1,782948.574337838,138,A
26,2,13/10/96,19,m,124,Luke watered the plants,Sensible,edin_semantics,sem_emo_sem_emo,1.03198653738946,2,2,1,0,782950.350239643,129,A
26,2,13/10/96,19,m,125,Fred chopped the carrots,Sensible,edin_semantics,sem_emo_sem_emo,1.10262869915459,1,1,1,1,782952.196717862,102,A
26,2,13/10/96,19,m,126,Phil cancelled the party,Sensible,edin_semantics,sem_emo_sem_emo,1.83188409882132,1,1,1,1,782954.772551546,82,A
26,2,13/10/96,19,m,127,Hugh kissed the rose,Sensible,edin_semantics,sem_emo_sem_emo,0.761469970224425,2,1,1,1,782956.277858849,98,A
26,2,13/10/96,19,m,128,Kate wore the dress,Sensible,edin_semantics,sem_emo_sem_emo,0.808626964804716,2,1,1,1,782957.830334372,100,A
26,2,13/10/96,19,m,129,Rose built the shed,Sensible,edin_semantics,sem_emo_sem_emo,0.914310858817771,1,2,2,1,782959.488632981,121,A
26,2,13/10/96,19,m,130,Eve ironed the trousers,Sensible,edin_semantics,sem_emo_sem_emo,0.92626191151794,2,1,1,1,782961.158707209,130,A
26,2,13/10/96,19,m,131,Bill trimmed the hair,Sensible,edin_semantics,sem_emo_sem_emo,0.902961480082013,2,2,1,0,782962.805316155,107,A
26,2,13/10/96,19,m,132,The cake iced Mary,Non-sensible,edin_semantics,sem_emo_sem_emo,1.51426089042798,1,1,1,1,782965.063426565,44,A
26,2,13/10/96,19,m,133,The number dialed Tom,Non-sensible,edin_semantics,sem_emo_sem_emo,0.96157882316038,2,2,1,0,782966.768845607,63,A
26,2,13/10/96,19,m,134,Jay sold the bed,Sensible,edin_semantics,sem_emo_sem_emo,1.27958497335203,2,2,1,0,782968.791714989,113,A
26,2,13/10/96,19,m,135,Tom offered the sweets,Sensible,edin_semantics,sem_emo_sem_emo,1.07848156243563,2,1,1,1,782970.614728567,84,A
26,2,13/10/96,19,m,136,Tim took the ticket,Sensible,edin_semantics,sem_emo_sem_emo,1.45554284076206,1,1,1,1,782972.814121248,128,A
26,2,13/10/96,19,m,137,The box lifted Kate,Non-sensible,edin_semantics,sem_emo_sem_emo,1.02010636415798,1,2,2,1,782974.578234607,69,A
26,2,13/10/96,19,m,138,Erin punched the monitor,Sensible,edin_semantics,sem_emo_sem_emo,0.938106805435382,2,2,1,0,782976.260090867,125,A
26,2,13/10/96,19,m,139,Fred stored the rice,Sensible,edin_semantics,sem_emo_sem_emo,1.16183264227584,2,2,1,0,782978.165376296,127,A
26,2,13/10/96,19,m,140,The picture painted Ryan,Non-sensible,edin_semantics,sem_emo_sem_emo,0.867522052838467,1,2,2,1,782979.776727343,35,A
26,2,13/10/96,19,m,141,Alex dusted the house,Sensible,edin_semantics,sem_emo_sem_emo,0.890905230655335,2,1,1,1,782981.411454511,122,A
26,2,13/10/96,19,m,142,Jack posted the gift,Sensible,edin_semantics,sem_emo_sem_emo,1.1259506191127,2,2,1,0,782983.281489098,111,A
26,2,13/10/96,19,m,143,The letter typed Phil,Non-sensible,edin_semantics,sem_emo_sem_emo,1.1261632576352,2,2,1,0,782985.151503479,49,A
26,2,13/10/96,19,m,144,Ian mailed the invite,Sensible,edin_semantics,sem_emo_sem_emo,1.18490151281003,2,2,1,0,782987.080341107,89,A
26,2,13/10/96,19,m,145,The trolley pushed Matt,Non-sensible,edin_semantics,sem_emo_sem_emo,1.09115520108026,1,1,1,1,782988.915089571,26,A
26,2,13/10/96,19,m,146,The papers filed Lara,Non-sensible,edin_semantics,sem_emo_sem_emo,0.843962157377973,2,1,1,1,782990.50284416,24,A
26,2,13/10/96,19,m,147,The house built Kate,Non-sensible,edin_semantics,sem_emo_sem_emo,1.98478720756248,1,1,1,1,782993.231437911,46,A
26,2,13/10/96,19,m,148,Jay squeezed the lemon,Sensible,edin_semantics,sem_emo_sem_emo,1.33792970294598,2,1,1,1,782995.313166139,76,A
26,2,13/10/96,19,m,149,Ian labeled the box,Sensible,edin_semantics,sem_emo_sem_emo,2.12608275644016,2,1,1,1,782998.18291368,136,A
26,2,13/10/96,19,m,150,The pen described John,Non-sensible,edin_semantics,sem_emo_sem_emo,0.926082307472825,2,1,1,1,782999.853032167,42,A
26,2,13/10/96,19,m,151,The cream whisked Tom,Non-sensible,edin_semantics,sem_emo_sem_emo,1.14309928775765,2,1,1,1,783026.503797024,137,B
26,2,13/10/96,19,m,152,The sweets offered Tom,Non-sensible,edin_semantics,sem_emo_sem_emo,0.819599174894392,1,2,2,1,783028.068031808,84,B
26,2,13/10/96,19,m,153,Andy grated the cheese,Sensible,edin_semantics,sem_emo_sem_emo,0.643027446116321,2,1,1,1,783029.455865807,65,B
26,2,13/10/96,19,m,154,Luke swallowed the pill,Sensible,edin_semantics,sem_emo_sem_emo,0.902007333002985,2,2,2,1,783031.102414457,22,B
26,2,13/10/96,19,m,155,Sam tidied the room,Sensible,edin_semantics,sem_emo_sem_emo,0.890280785388313,2,2,2,1,783032.737210581,2,B
26,2,13/10/96,19,m,156,Phil passed the towels,Sensible,edin_semantics,sem_emo_sem_emo,0.854349371162243,2,1,1,1,783034.336736297,43,B
26,2,13/10/96,19,m,157,Ian cancelled the plans,Sensible,edin_semantics,sem_emo_sem_emo,0.772350774612278,2,1,1,1,783035.853924415,7,B
26,2,13/10/96,19,m,158,Ben chewed the toffee,Sensible,edin_semantics,sem_emo_sem_emo,0.73732315399684,1,1,1,1,783037.335841805,31,B
26,2,13/10/96,19,m,159,Tom dialed the number,Sensible,edin_semantics,sem_emo_sem_emo,0.91367262264248,2,1,1,1,783038.994163506,63,B
26,2,13/10/96,19,m,160,The garage tidied Erin,Non-sensible,edin_semantics,sem_emo_sem_emo,0.736480938852765,1,1,1,1,783040.476105592,77,B
26,2,13/10/96,19,m,161,Jeff watered the garden,Sensible,edin_semantics,sem_emo_sem_emo,0.971895798691548,2,2,2,1,783042.193203073,54,B
26,2,13/10/96,19,m,162,The wallet carried Leo,Non-sensible,edin_semantics,sem_emo_sem_emo,0.819677751627751,2,2,2,1,783043.757433046,150,B
26,2,13/10/96,19,m,163,The trophy polished Anna,Non-sensible,edin_semantics,sem_emo_sem_emo,0.936618336010724,1,2,2,1,783045.439285137,104,B
26,2,13/10/96,19,m,164,Jen searched the room,Sensible,edin_semantics,sem_emo_sem_emo,1.34869729261845,1,2,2,1,783047.53279636,10,B
26,2,13/10/96,19,m,165,The plants watered Luke,Non-sensible,edin_semantics,sem_emo_sem_emo,1.1488382818643,1,1,1,1,783049.426528111,129,B
26,2,13/10/96,19,m,166,Rob stroked the fur,Sensible,edin_semantics,sem_emo_sem_emo,0.842666120966896,2,1,1,1,783051.014094757,41,B
26,2,13/10/96,19,m,167,The internet searched Max,Non-sensible,edin_semantics,sem_emo_sem_emo,0.784247304662131,2,1,1,1,783052.543076132,85,B
26,2,13/10/96,19,m,168,Jake dusted the shelf,Sensible,edin_semantics,sem_emo_sem_emo,0.831002755672671,2,1,1,1,783054.119052858,47,B
26,2,13/10/96,19,m,169,Ella watched the movie,Sensible,edin_semantics,sem_emo_sem_emo,0.830572347156703,2,1,1,1,783055.695053637,33,B
26,2,13/10/96,19,m,170,Liz sliced the tomato,Sensible,edin_semantics,sem_emo_sem_emo,1.32532085001003,2,1,1,1,783057.765000475,3,B
26,2,13/10/96,19,m,171,Matt pushed the trolley,Sensible,edin_semantics,sem_emo_sem_emo,1.007820477942,2,2,2,1,783059.517407812,26,B
26,2,13/10/96,19,m,172,Mary visited the museum,Sensible,edin_semantics,sem_emo_sem_emo,0.984044095384888,1,2,2,1,783061.246303041,16,B
26,2,13/10/96,19,m,173,Matt offered the money,Sensible,edin_semantics,sem_emo_sem_emo,0.784663922153413,2,1,1,1,783062.775255551,9,B
26,2,13/10/96,19,m,174,The gift posted Jack,Non-sensible,edin_semantics,sem_emo_sem_emo,1.03120237286203,2,1,1,1,783064.55120322,111,B
26,2,13/10/96,19,m,175,Kate lifted the box,Sensible,edin_semantics,sem_emo_sem_emo,0.820685779908672,2,1,1,1,783066.115464944,69,B
26,2,13/10/96,19,m,176,The bowl dented Ian,Non-sensible,edin_semantics,sem_emo_sem_emo,1.11380745412316,1,2,2,1,783067.973684464,146,B
26,2,13/10/96,19,m,177,Beth wiped the table,Sensible,edin_semantics,sem_emo_sem_emo,0.878315941663459,1,2,2,1,783069.596750191,40,B
26,2,13/10/96,19,m,178,Mary iced the cake,Sensible,edin_semantics,sem_emo_sem_emo,0.796058843494393,1,2,2,1,783071.137446568,44,B
26,2,13/10/96,19,m,179,Amy hugged the tree,Sensible,edin_semantics,sem_emo_sem_emo,0.984076488181017,2,1,1,1,783072.866340193,11,B
26,2,13/10/96,19,m,180,The problem solved Phil,Non-sensible,edin_semantics,sem_emo_sem_emo,0.761154700769112,1,1,1,1,783074.371816196,109,B
26,2,13/10/96,19,m,181,The party cancelled Phil,Non-sensible,edin_semantics,sem_emo_sem_emo,0.831319628632627,2,2,2,1,783075.947830446,82,B
26,2,13/10/96,19,m,182,Phil typed the letter,Sensible,edin_semantics,sem_emo_sem_emo,0.87843653303571,1,1,1,1,783077.570852234,49,B
26,2,13/10/96,19,m,183,The sugar weighed Liz,Non-sensible,edin_semantics,sem_emo_sem_emo,0.901783148525283,2,1,1,1,783079.217389338,139,B
26,2,13/10/96,19,m,184,The house dusted Alex,Non-sensible,edin_semantics,sem_emo_sem_emo,0.737476138281636,2,2,2,1,783080.699406152,122,B
26,2,13/10/96,19,m,185,Lara filed the papers,Sensible,edin_semantics,sem_emo_sem_emo,0.878061609342694,2,2,2,1,783082.322346156,24,B
26,2,13/10/96,19,m,186,The radio got Ben,Non-sensible,edin_semantics,sem_emo_sem_emo,0.866847895784304,2,2,2,1,783083.933622154,88,B
26,2,13/10/96,19,m,187,Dan whisked the eggs,Sensible,edin_semantics,sem_emo_sem_emo,0.948883695993572,2,2,2,1,783085.627242486,62,B
26,2,13/10/96,19,m,188,The ice crushed Josh,Non-sensible,edin_semantics,sem_emo_sem_emo,0.842857591807842,2,1,1,1,783087.214980077,81,B
26,2,13/10/96,19,m,189,The turnip mashed Ella,Non-sensible,edin_semantics,sem_emo_sem_emo,0.890035433229059,2,1,1,1,783088.849773314,103,B
26,2,13/10/96,19,m,190,Matt kicked the bike,Sensible,edin_semantics,sem_emo_sem_emo,0.854718201095238,1,1,1,1,783090.449336234,39,B
26,2,13/10/96,19,m,191,Phil sniffed the milk,Sensible,edin_semantics,sem_emo_sem_emo,0.796669818228111,1,2,2,1,783091.990004708,18,B
26,2,13/10/96,19,m,192,The socks knitted Ryan,Non-sensible,edin_semantics,sem_emo_sem_emo,0.748661307618022,2,1,1,1,783093.483682001,141,B
26,2,13/10/96,19,m,193,Matt drank the juice,Sensible,edin_semantics,sem_emo_sem_emo,2.39543638681062,1,2,2,1,783096.623945467,60,B
26,2,13/10/96,19,m,194,The rice stored Fred,Non-sensible,edin_semantics,sem_emo_sem_emo,0.79571406764444,1,1,1,1,783098.164644089,127,B
26,2,13/10/96,19,m,195,Tim cleaned the floor,Sensible,edin_semantics,sem_emo_sem_emo,0.90229630318936,2,1,1,1,783099.811201077,5,B
26,2,13/10/96,19,m,196,The donut iced Joe,Non-sensible,edin_semantics,sem_emo_sem_emo,1.46618663182016,1,1,1,1,783102.022283102,119,B
26,2,13/10/96,19,m,197,The report filed Ian,Non-sensible,edin_semantics,sem_emo_sem_emo,1.25522808451205,1,1,1,1,783104.021700992,99,B
26,2,13/10/96,19,m,198,Lily dented the lorry,Sensible,edin_semantics,sem_emo_sem_emo,1.05461794347502,1,1,1,1,783105.821153071,71,B
26,2,13/10/96,19,m,199,The dessert served Fred,Non-sensible,edin_semantics,sem_emo_sem_emo,1.18378155259416,2,1,1,1,783107.750015395,145,B
26,2,13/10/96,19,m,200,Mike paid the bill,Sensible,edin_semantics,sem_emo_sem_emo,0.995681803091429,2,1,1,1,783109.490648397,59,B
26,2,13/10/96,19,m,201,The steak ate Mike,Non-sensible,edin_semantics,sem_emo_sem_emo,0.866829614620656,1,2,2,1,783111.101915093,142,B
26,2,13/10/96,19,m,202,Josh squeezed the ball,Sensible,edin_semantics,sem_emo_sem_emo,1.12503720377572,2,1,1,1,783112.971957057,1,B
26,2,13/10/96,19,m,203,Erin crushed the garlic,Sensible,edin_semantics,sem_emo_sem_emo,1.00801451457664,1,2,2,1,783114.724391976,6,B
26,2,13/10/96,19,m,204,The hair brushed Dan,Non-sensible,edin_semantics,sem_emo_sem_emo,0.854579649283551,2,1,1,1,783116.323906788,147,B
26,2,13/10/96,19,m,205,Will licked the spoon,Sensible,edin_semantics,sem_emo_sem_emo,1.8309440636076,2,1,1,1,783118.899594864,21,B
26,2,13/10/96,19,m,206,Rob mailed the parcel,Sensible,edin_semantics,sem_emo_sem_emo,1.08967378758825,2,2,2,1,783120.734343329,14,B
26,2,13/10/96,19,m,207,The crate lifted Amy,Non-sensible,edin_semantics,sem_emo_sem_emo,1.19579065591097,1,2,2,1,783122.674918408,144,B
26,2,13/10/96,19,m,208,The salt passed Leo,Non-sensible,edin_semantics,sem_emo_sem_emo,1.23122623458039,2,2,2,1,783124.650785383,118,B
26,2,13/10/96,19,m,209,The rules taught Josh,Non-sensible,edin_semantics,sem_emo_sem_emo,1.46644801995717,2,2,2,1,783126.861910064,90,B
26,2,13/10/96,19,m,210,Jon jumped the fence,Sensible,edin_semantics,sem_emo_sem_emo,0.843069588881917,2,1,1,1,783128.449649579,17,B
26,2,13/10/96,19,m,211,Beth took the photo,Sensible,edin_semantics,sem_emo_sem_emo,1.06649875815492,1,1,1,1,783130.260885615,53,B
26,2,13/10/96,19,m,212,The desk wiped Lucy,Non-sensible,edin_semantics,sem_emo_sem_emo,0.948701526154764,2,1,1,1,783131.954512683,115,B
26,2,13/10/96,19,m,213,Will mashed the potatoes,Sensible,edin_semantics,sem_emo_sem_emo,0.901797260274179,2,2,2,1,783133.601079293,28,B
26,2,13/10/96,19,m,214,The carrots grated Tom,Non-sensible,edin_semantics,sem_emo_sem_emo,0.818981785560027,2,2,2,1,783135.165329471,140,B
26,2,13/10/96,19,m,215,The perfume sniffed Tim,Non-sensible,edin_semantics,sem_emo_sem_emo,0.725383647251874,2,1,1,1,783136.635434039,93,B
26,2,13/10/96,19,m,216,John described the pen,Sensible,edin_semantics,sem_emo_sem_emo,0.925002758274786,2,2,2,1,783138.305572732,42,B
26,2,13/10/96,19,m,217,Tom knitted the scarf,Sensible,edin_semantics,sem_emo_sem_emo,1.21920269867405,2,2,2,1,783140.269632338,66,B
26,2,13/10/96,19,m,218,Max lent the bucket,Sensible,edin_semantics,sem_emo_sem_emo,1.90164812467992,1,1,1,1,783142.915941729,19,B
26,2,13/10/96,19,m,219,The message typed Eve,Non-sensible,edin_semantics,sem_emo_sem_emo,1.07830580684822,1,2,2,1,783144.738914575,124,B
26,2,13/10/96,19,m,220,The nuts mixed Liam,Non-sensible,edin_semantics,sem_emo_sem_emo,1.16073737759143,1,1,1,1,783146.644190383,83,B
26,2,13/10/96,19,m,221,The kettle carried John,Non-sensible,edin_semantics,sem_emo_sem_emo,0.807720284559764,2,1,1,1,783148.196679055,105,B
26,2,13/10/96,19,m,222,Jon polished the coins,Sensible,edin_semantics,sem_emo_sem_emo,0.90139796177391,1,1,1,1,783149.843253042,29,B
26,2,13/10/96,19,m,223,The office entered Joe,Non-sensible,edin_semantics,sem_emo_sem_emo,1.05433827417437,1,1,1,1,783151.64268684,133,B
26,2,13/10/96,19,m,224,Carl sold the sofa,Sensible,edin_semantics,sem_emo_sem_emo,1.1957117584534,2,2,2,1,783153.583322856,38,B
26,2,13/10/96,19,m,225,The ribbon cut Lucy,Non-sensible,edin_semantics,sem_emo_sem_emo,0.666479899780825,1,1,1,1,783154.994616686,95,B
26,2,13/10/96,19,m,226,The gum swallowed Owen,Non-sensible,edin_semantics,sem_emo_sem_emo,0.819190575508401,2,1,1,1,783156.558863978,97,B
26,2,13/10/96,19,m,227,Jack mixed the fruits,Sensible,edin_semantics,sem_emo_sem_emo,1.11364933825098,2,2,2,1,783158.417128399,8,B
26,2,13/10/96,19,m,228,The report wrote Alex,Non-sensible,edin_semantics,sem_emo_sem_emo,1.07870446390007,1,1,1,1,783160.240149995,149,B
26,2,13/10/96,19,m,229,The pillow hugged Kate,Non-sensible,edin_semantics,sem_emo_sem_emo,0.77263621694874,2,2,2,1,783161.757298984,86,B
26,2,13/10/96,19,m,230,Ryan carried the gun,Sensible,edin_semantics,sem_emo_sem_emo,0.748692738357931,2,1,1,1,783163.250963769,75,B
26,2,13/10/96,19,m,231,The rose kissed Hugh,Non-sensible,edin_semantics,sem_emo_sem_emo,1.56001568969805,1,2,2,1,783165.556174085,98,B
26,2,13/10/96,19,m,232,The hair trimmed Bill,Non-sensible,edin_semantics,sem_emo_sem_emo,1.07802517537493,2,1,1,1,783167.379142121,107,B
26,2,13/10/96,19,m,233,The box labeled Ian,Non-sensible,edin_semantics,sem_emo_sem_emo,0.960488369339146,2,2,2,1,783169.084542882,136,B
26,2,13/10/96,19,m,234,The candy sucked Sam,Non-sensible,edin_semantics,sem_emo_sem_emo,1.16024122131057,1,1,1,1,783170.989834726,87,B
26,2,13/10/96,19,m,235,The pan washed Beth,Non-sensible,edin_semantics,sem_emo_sem_emo,1.41942252125591,1,2,2,1,783173.153874575,132,B
26,2,13/10/96,19,m,236,Lily got the kettle,Sensible,edin_semantics,sem_emo_sem_emo,0.878239289158955,2,1,1,1,783174.776978789,13,B
26,2,13/10/96,19,m,237,Ryan entered the room,Sensible,edin_semantics,sem_emo_sem_emo,0.654619290493429,2,2,1,0,783176.176498604,58,B
26,2,13/10/96,19,m,238,The car lent Fred,Non-sensible,edin_semantics,sem_emo_sem_emo,0.936923663131893,1,2,2,1,783177.858350374,94,B
26,2,13/10/96,19,m,239,The rope pulled Emma,Non-sensible,edin_semantics,sem_emo_sem_emo,0.772079123416916,1,2,2,1,783179.375542661,120,B
26,2,13/10/96,19,m,240,Luke climbed the hill,Sensible,edin_semantics,sem_emo_sem_emo,0.984448846196756,1,2,2,1,783181.104595685,68,B
26,2,13/10/96,19,m,241,Liz scrubbed the bowl,Sensible,edin_semantics,sem_emo_sem_emo,0.842892871238291,1,2,2,1,783182.692207553,56,B
26,2,13/10/96,19,m,242,Joe wore the jumper,Sensible,edin_semantics,sem_emo_sem_emo,1.2191667779116,2,1,1,1,783184.656304362,25,B
26,2,13/10/96,19,m,243,Dan carried the folder,Sensible,edin_semantics,sem_emo_sem_emo,0.80759135435801,2,2,2,1,783186.208781809,30,B
26,2,13/10/96,19,m,244,The beer drank Jack,Non-sensible,edin_semantics,sem_emo_sem_emo,1.00742663163692,1,1,1,1,783187.961244631,135,B
26,2,13/10/96,19,m,245,The blanket stroked Ryan,Non-sensible,edin_semantics,sem_emo_sem_emo,0.984167893882841,1,2,2,1,783189.690110675,116,B
26,2,13/10/96,19,m,246,The hedge jumped Sara,Non-sensible,edin_semantics,sem_emo_sem_emo,0.807825801894069,2,2,2,1,783191.24259646,92,B
26,2,13/10/96,19,m,247,The curtains measured Rob,Non-sensible,edin_semantics,sem_emo_sem_emo,0.84337780252099,1,2,2,1,783192.830335013,126,B
26,2,13/10/96,19,m,248,The rope pulled Andy,Non-sensible,edin_semantics,sem_emo_sem_emo,0.983959745499305,2,2,2,1,783194.559221583,148,B
26,2,13/10/96,19,m,249,Eve taught the lesson,Sensible,edin_semantics,sem_emo_sem_emo,0.901460502413101,1,1,1,1,783196.205789155,15,B
26,2,13/10/96,19,m,250,Leah sucked the lolly,Sensible,edin_semantics,sem_emo_sem_emo,1.07797289767768,2,2,2,1,783198.028814279,12,B
26,2,13/10/96,19,m,251,Tim ate the ham,Sensible,edin_semantics,sem_emo_sem_emo,1.30191778752487,1,1,1,1,783200.075250933,67,B
26,2,13/10/96,19,m,252,Bill counted the sheets,Sensible,edin_semantics,sem_emo_sem_emo,1.19566172582563,1,2,2,1,783202.015844935,48,B
26,2,13/10/96,19,m,253,The carrots chopped Fred,Non-sensible,edin_semantics,sem_emo_sem_emo,0.960684650926851,2,2,2,1,783203.721205285,102,B
26,2,13/10/96,19,m,254,Kate built the house,Sensible,edin_semantics,sem_emo_sem_emo,0.92559128254652,2,2,2,1,783205.391319924,46,B
26,2,13/10/96,19,m,255,Tim pulled the handle,Sensible,edin_semantics,sem_emo_sem_emo,0.760581891750917,1,1,1,1,783206.896689126,73,B
26,2,13/10/96,19,m,256,Kate served the dish,Sensible,edin_semantics,sem_emo_sem_emo,0.913259212393314,1,2,2,1,783208.555019808,70,B
26,2,13/10/96,19,m,257,The lemon squeezed Jay,Non-sensible,edin_semantics,sem_emo_sem_emo,0.854574838420376,1,2,2,1,783210.154540714,76,B
26,2,13/10/96,19,m,258,The pot scrubbed Josh,Non-sensible,edin_semantics,sem_emo_sem_emo,1.28957609564532,1,1,1,1,783212.189221634,131,B
26,2,13/10/96,19,m,259,The fat chewed Adam,Non-sensible,edin_semantics,sem_emo_sem_emo,1.3247044228483,1,2,2,1,783214.25918579,106,B
26,2,13/10/96,19,m,260,The door kicked Max,Non-sensible,edin_semantics,sem_emo_sem_emo,0.901935491361655,1,2,2,1,783215.90578768,114,B
26,2,13/10/96,19,m,261,The invite mailed Ian,Non-sensible,edin_semantics,sem_emo_sem_emo,0.996046784217469,1,1,2,0,783217.646407532,89,B
26,2,13/10/96,19,m,262,Amy measured the thread,Sensible,edin_semantics,sem_emo_sem_emo,0.854645076557063,1,1,1,1,783219.245953134,51,B
26,2,13/10/96,19,m,263,The shed built Rose,Non-sensible,edin_semantics,sem_emo_sem_emo,0.713600652758032,2,1,1,1,783220.704307421,121,B
26,2,13/10/96,19,m,264,The monitor punched Erin,Non-sensible,edin_semantics,sem_emo_sem_emo,0.866201641620137,2,1,1,1,783222.315635375,125,B
26,2,13/10/96,19,m,265,The bath cleaned Jack,Non-sensible,edin_semantics,sem_emo_sem_emo,0.936749831889756,1,2,2,1,783223.99744032,80,B
26,2,13/10/96,19,m,266,Mark washed the dishes,Sensible,edin_semantics,sem_emo_sem_emo,0.88987186527811,2,1,1,1,783225.632246065,57,B
26,2,13/10/96,19,m,267,Josh ironed the shirt,Sensible,edin_semantics,sem_emo_sem_emo,1.1835871952353,2,1,1,1,783227.561085617,55,B
26,2,13/10/96,19,m,268,Carl brushed the teeth,Sensible,edin_semantics,sem_emo_sem_emo,0.925158628961071,2,2,1,0,783229.231174278,72,B
26,2,13/10/96,19,m,269,The ticket took Tim,Non-sensible,edin_semantics,sem_emo_sem_emo,0.737174339126796,1,2,2,1,783230.713090705,128,B
26,2,13/10/96,19,m,270,Sean read the book,Sensible,edin_semantics,sem_emo_sem_emo,1.07832889887504,1,2,2,1,783232.536135073,4,B
26,2,13/10/96,19,m,271,The shoes counted Lucy,Non-sensible,edin_semantics,sem_emo_sem_emo,0.913657228113152,1,1,1,1,783234.194420533,123,B
26,2,13/10/96,19,m,272,The church described Erin,Non-sensible,edin_semantics,sem_emo_sem_emo,0.830646754591726,2,1,1,1,783235.77042003,117,B
26,2,13/10/96,19,m,273,Leo stored the wine,Sensible,edin_semantics,sem_emo_sem_emo,1.05409131839406,2,2,1,0,783237.569831377,52,B
26,2,13/10/96,19,m,274,Jen fixed the laptop,Sensible,edin_semantics,sem_emo_sem_emo,0.995395398582332,2,1,1,1,783239.310509922,37,B
26,2,13/10/96,19,m,275,Ryan painted the picture,Sensible,edin_semantics,sem_emo_sem_emo,1.06643012363929,1,1,1,1,783241.121754296,35,B
26,2,13/10/96,19,m,276,Ewan wrote the story,Sensible,edin_semantics,sem_emo_sem_emo,1.79560983309057,2,2,2,1,783243.662149195,74,B
26,2,13/10/96,19,m,277,The hotline dialed Hugh,Non-sensible,edin_semantics,sem_emo_sem_emo,1.07778303045779,1,2,2,1,783245.485115947,138,B
26,2,13/10/96,19,m,278,The hospital visited Tom,Non-sensible,edin_semantics,sem_emo_sem_emo,0.666482465458103,2,1,1,1,783246.896454357,91,B
26,2,13/10/96,19,m,279,Hugh pulled the lever,Sensible,edin_semantics,sem_emo_sem_emo,0.91364696493838,1,1,1,1,783248.554830903,45,B
26,2,13/10/96,19,m,280,The radio fixed Luke,Non-sensible,edin_semantics,sem_emo_sem_emo,1.01931546442211,2,2,1,0,783250.318973768,112,B
26,2,13/10/96,19,m,281,Joe solved the puzzle,Sensible,edin_semantics,sem_emo_sem_emo,1.1252924981527,2,2,2,1,783252.188999053,34,B
26,2,13/10/96,19,m,282,Phil chopped the herbs,Sensible,edin_semantics,sem_emo_sem_emo,0.795583533938043,2,1,1,1,783253.729689978,27,B
26,2,13/10/96,19,m,283,The trousers ironed Eve,Non-sensible,edin_semantics,sem_emo_sem_emo,0.902075325953774,1,2,2,1,783255.376263002,130,B
26,2,13/10/96,19,m,284,The opera watched Adam,Non-sensible,edin_semantics,sem_emo_sem_emo,0.984389191959053,2,2,2,1,783257.105182606,108,B
26,2,13/10/96,19,m,285,Liz labeled the jar,Sensible,edin_semantics,sem_emo_sem_emo,1.74830979667604,1,1,1,1,783259.598520896,61,B
26,2,13/10/96,19,m,286,The bed sold Jay,Non-sensible,edin_semantics,sem_emo_sem_emo,1.16053596441634,1,1,1,1,783261.503832624,113,B
26,2,13/10/96,19,m,287,The dress wore Kate,Non-sensible,edin_semantics,sem_emo_sem_emo,1.07806430349592,2,2,2,1,783263.326811885,100,B
26,2,13/10/96,19,m,288,The onion sliced Liam,Non-sensible,edin_semantics,sem_emo_sem_emo,0.819566140533425,1,2,2,1,783264.891057573,78,B
26,2,13/10/96,19,m,289,Jen weighed the flour,Sensible,edin_semantics,sem_emo_sem_emo,1.07770605734549,2,2,2,1,783266.714046135,64,B
26,2,13/10/96,19,m,290,Max kissed the mirror,Sensible,edin_semantics,sem_emo_sem_emo,0.795883408747613,2,1,1,1,783268.254761434,23,B
26,2,13/10/96,19,m,291,The plate licked Jane,Non-sensible,edin_semantics,sem_emo_sem_emo,0.80770970066078,1,2,2,1,783269.807221242,96,B
26,2,13/10/96,19,m,292,The debt paid Zoe,Non-sensible,edin_semantics,sem_emo_sem_emo,1.44282173516694,2,2,2,1,783271.994811685,134,B
26,2,13/10/96,19,m,293,Jane punched the wall,Sensible,edin_semantics,sem_emo_sem_emo,0.889592837309465,1,2,1,0,783273.629618392,50,B
26,2,13/10/96,19,m,294,Jon cut the paper,Sensible,edin_semantics,sem_emo_sem_emo,0.854697033413686,1,2,2,1,783275.229145713,20,B
26,2,13/10/96,19,m,295,The button pushed Ian,Non-sensible,edin_semantics,sem_emo_sem_emo,1.2547245513415,1,1,1,1,783277.228520947,101,B
26,2,13/10/96,19,m,296,The portrait painted Jay,Non-sensible,edin_semantics,sem_emo_sem_emo,0.88970124127809,1,2,2,1,783278.863336635,110,B
26,2,13/10/96,19,m,297,The poster read Luke,Non-sensible,edin_semantics,sem_emo_sem_emo,1.03116709343158,2,1,1,1,783280.639276606,79,B
26,2,13/10/96,19,m,298,Erin posted the card,Sensible,edin_semantics,sem_emo_sem_emo,0.948369258432649,1,2,2,1,783282.33287128,36,B
26,2,13/10/96,19,m,299,Jon trimmed the bushes,Sensible,edin_semantics,sem_emo_sem_emo,0.889694506186061,2,2,2,1,783283.967701721,32,B
26,2,13/10/96,19,m,300,The stairs climbed Ben,Non-sensible,edin_semantics,sem_emo_sem_emo,0.913247024989687,1,1,1,1,783285.625982691,143,B
