subject_column,AssignedList_column,subject_dob_column,subject_age_column,subject_gender_column,trialnum_column,Stim_column,Type_column,Experiment_column,OrderGroup_column,ReactionTime_column,StimSide_column,StimPosition_column,Response_column,Valid_column,TrialEndSecs_column,PairID_column,List_column
27,3,22/12/90,25,f,1,Luke swallowed the pill,Sensible,edin_semantics,emo_sem_emo_sem,1.00270368403289,2,2,2,1,788356.048454635,22,B
27,3,22/12/90,25,f,2,Ian cancelled the plans,Sensible,edin_semantics,emo_sem_emo_sem,1.14987260929774,1,1,1,1,788357.941909603,7,B
27,3,22/12/90,25,f,3,Jon trimmed the bushes,Sensible,edin_semantics,emo_sem_emo_sem,1.20922023570165,1,2,2,1,788359.894310974,32,B
27,3,22/12/90,25,f,4,The radio got Ben,Non-sensible,edin_semantics,emo_sem_emo_sem,9.39447390090209,2,2,2,1,788370.032431699,88,B
27,3,22/12/90,25,f,5,Matt offered the money,Sensible,edin_semantics,emo_sem_emo_sem,1.37320171343163,2,1,1,1,788372.1493973,9,B
27,3,22/12/90,25,f,6,The salt passed Leo,Non-sensible,edin_semantics,emo_sem_emo_sem,1.09103685477749,1,2,2,1,788373.984198042,118,B
27,3,22/12/90,25,f,7,The sugar weighed Liz,Non-sensible,edin_semantics,emo_sem_emo_sem,1.59676718933042,2,1,1,1,788376.324660805,139,B
27,3,22/12/90,25,f,8,The rose kissed Hugh,Non-sensible,edin_semantics,emo_sem_emo_sem,0.926532280049287,1,2,2,1,788377.994709696,98,B
27,3,22/12/90,25,f,9,Amy measured the thread,Sensible,edin_semantics,emo_sem_emo_sem,1.03190860198811,1,1,1,1,788379.770651912,51,B
27,3,22/12/90,25,f,10,The rules taught Josh,Non-sensible,edin_semantics,emo_sem_emo_sem,1.0323255402036,2,2,2,1,788381.546591883,90,B
27,3,22/12/90,25,f,11,The plate licked Jane,Non-sensible,edin_semantics,emo_sem_emo_sem,4.7844535287004,2,2,2,1,788387.074381777,96,B
27,3,22/12/90,25,f,12,The church described Erin,Non-sensible,edin_semantics,emo_sem_emo_sem,0.879401584621519,1,1,1,1,788388.697844558,117,B
27,3,22/12/90,25,f,13,Bill counted the sheets,Sensible,edin_semantics,emo_sem_emo_sem,0.773332503740676,1,2,2,1,788390.214578533,48,B
27,3,22/12/90,25,f,14,Kate lifted the box,Sensible,edin_semantics,emo_sem_emo_sem,1.02092292159796,2,1,1,1,788391.978750263,69,B
27,3,22/12/90,25,f,15,Jon cut the paper,Sensible,edin_semantics,emo_sem_emo_sem,1.62125717767049,1,2,2,1,788394.342772921,20,B
27,3,22/12/90,25,f,16,The sweets offered Tom,Non-sensible,edin_semantics,emo_sem_emo_sem,4.93765234283637,2,2,2,1,788400.023411401,84,B
27,3,22/12/90,25,f,17,The poster read Luke,Non-sensible,edin_semantics,emo_sem_emo_sem,1.09136463236064,2,1,1,1,788401.85817045,79,B
27,3,22/12/90,25,f,18,The hedge jumped Sara,Non-sensible,edin_semantics,emo_sem_emo_sem,0.75021392130293,1,2,2,1,788403.351812462,92,B
27,3,22/12/90,25,f,19,The kettle carried John,Non-sensible,edin_semantics,emo_sem_emo_sem,1.57355335273314,2,1,1,1,788405.668766645,105,B
27,3,22/12/90,25,f,20,The party cancelled Phil,Non-sensible,edin_semantics,emo_sem_emo_sem,1.29088431957643,2,2,2,1,788407.703474827,82,B
27,3,22/12/90,25,f,21,The hair trimmed Bill,Non-sensible,edin_semantics,emo_sem_emo_sem,1.23261175223161,2,1,1,1,788409.679366818,107,B
27,3,22/12/90,25,f,22,The trophy polished Anna,Non-sensible,edin_semantics,emo_sem_emo_sem,2.43203843012452,2,2,2,1,788412.854888184,104,B
27,3,22/12/90,25,f,23,The bed sold Jay,Non-sensible,edin_semantics,emo_sem_emo_sem,0.867196199600585,1,1,1,1,788414.466114149,113,B
27,3,22/12/90,25,f,24,Mark washed the dishes,Sensible,edin_semantics,emo_sem_emo_sem,0.843920142855495,1,1,1,1,788416.053904338,57,B
27,3,22/12/90,25,f,25,The dessert served Fred,Non-sensible,edin_semantics,emo_sem_emo_sem,1.22005261119921,1,1,1,1,788418.018004354,145,B
27,3,22/12/90,25,f,26,Jack mixed the fruits,Sensible,edin_semantics,emo_sem_emo_sem,0.878979514935054,1,2,2,1,788419.641037368,8,B
27,3,22/12/90,25,f,27,The debt paid Zoe,Non-sensible,edin_semantics,emo_sem_emo_sem,0.94985836930573,1,2,2,1,788421.334665718,134,B
27,3,22/12/90,25,f,28,Ryan entered the room,Sensible,edin_semantics,emo_sem_emo_sem,0.690975661040284,1,2,2,1,788422.76952682,58,B
27,3,22/12/90,25,f,29,The hair brushed Dan,Non-sensible,edin_semantics,emo_sem_emo_sem,1.00898341485299,2,1,1,1,788424.52193993,147,B
27,3,22/12/90,25,f,30,The house dusted Alex,Non-sensible,edin_semantics,emo_sem_emo_sem,2.27916482789442,2,2,2,1,788427.544571336,122,B
27,3,22/12/90,25,f,31,The opera watched Adam,Non-sensible,edin_semantics,emo_sem_emo_sem,1.07922275026795,1,2,2,1,788429.367581707,108,B
27,3,22/12/90,25,f,32,The gum swallowed Owen,Non-sensible,edin_semantics,emo_sem_emo_sem,0.832303282106295,1,1,1,1,788430.943534058,97,B
27,3,22/12/90,25,f,33,Jake dusted the shelf,Sensible,edin_semantics,emo_sem_emo_sem,1.1972242819611,2,1,1,1,788432.884125174,47,B
27,3,22/12/90,25,f,34,Joe solved the puzzle,Sensible,edin_semantics,emo_sem_emo_sem,0.774052524007857,1,2,2,1,788434.401338308,34,B
27,3,22/12/90,25,f,35,Jon jumped the fence,Sensible,edin_semantics,emo_sem_emo_sem,0.797519410029054,1,1,1,1,788435.942031156,17,B
27,3,22/12/90,25,f,36,The cream whisked Tom,Non-sensible,edin_semantics,emo_sem_emo_sem,1.25653278036043,2,1,1,1,788437.941453216,137,B
27,3,22/12/90,25,f,37,Josh squeezed the ball,Sensible,edin_semantics,emo_sem_emo_sem,1.51500143681187,1,1,1,1,788440.199591208,1,B
27,3,22/12/90,25,f,38,The perfume sniffed Tim,Non-sensible,edin_semantics,emo_sem_emo_sem,0.914936907589436,1,1,1,1,788441.857925739,93,B
27,3,22/12/90,25,f,39,Eve taught the lesson,Sensible,edin_semantics,emo_sem_emo_sem,4.92598544957582,2,1,1,1,788447.526829012,15,B
27,3,22/12/90,25,f,40,Jon polished the coins,Sensible,edin_semantics,emo_sem_emo_sem,1.09070619067643,2,1,1,1,788449.361536103,29,B
27,3,22/12/90,25,f,41,The car lent Fred,Non-sensible,edin_semantics,emo_sem_emo_sem,1.5262757667806,2,2,2,1,788451.631433036,94,B
27,3,22/12/90,25,f,42,The plants watered Luke,Non-sensible,edin_semantics,emo_sem_emo_sem,1.07945495273452,2,1,1,1,788453.454479969,129,B
27,3,22/12/90,25,f,43,The desk wiped Lucy,Non-sensible,edin_semantics,emo_sem_emo_sem,1.91461682738736,2,1,1,1,788456.112454009,115,B
27,3,22/12/90,25,f,44,The ice crushed Josh,Non-sensible,edin_semantics,emo_sem_emo_sem,1.24434663867578,1,1,1,1,788458.100099488,81,B
27,3,22/12/90,25,f,45,Erin crushed the garlic,Sensible,edin_semantics,emo_sem_emo_sem,1.03230116539635,2,2,2,1,788459.876039459,6,B
27,3,22/12/90,25,f,46,The beer drank Jack,Non-sensible,edin_semantics,emo_sem_emo_sem,0.855786845786497,1,1,1,1,788461.475540801,135,B
27,3,22/12/90,25,f,47,The report filed Ian,Non-sensible,edin_semantics,emo_sem_emo_sem,0.997543271747418,2,1,1,1,788463.216213252,99,B
27,3,22/12/90,25,f,48,Liz scrubbed the bowl,Sensible,edin_semantics,emo_sem_emo_sem,1.20868398912717,2,2,1,0,788465.168572288,56,B
27,3,22/12/90,25,f,49,Tim cleaned the floor,Sensible,edin_semantics,emo_sem_emo_sem,1.15021610225085,2,1,1,1,788467.062101664,5,B
27,3,22/12/90,25,f,50,The blanket stroked Ryan,Non-sensible,edin_semantics,emo_sem_emo_sem,0.915053650271147,1,2,2,1,788468.720433949,116,B
27,3,22/12/90,25,f,51,Hugh pulled the lever,Sensible,edin_semantics,emo_sem_emo_sem,0.974159131757915,2,1,1,1,788470.43755324,45,B
27,3,22/12/90,25,f,52,Lily got the kettle,Sensible,edin_semantics,emo_sem_emo_sem,1.08022083609831,1,1,1,1,788472.260553668,13,B
27,3,22/12/90,25,f,53,Ewan wrote the story,Sensible,edin_semantics,emo_sem_emo_sem,1.66776182444301,1,2,2,1,788474.671594128,74,B
27,3,22/12/90,25,f,54,The steak ate Mike,Non-sensible,edin_semantics,emo_sem_emo_sem,1.25563347665593,1,2,2,1,788476.670962306,142,B
27,3,22/12/90,25,f,55,Max kissed the mirror,Sensible,edin_semantics,emo_sem_emo_sem,1.82036249246448,2,1,1,1,788479.234922231,23,B
27,3,22/12/90,25,f,56,The invite mailed Ian,Non-sensible,edin_semantics,emo_sem_emo_sem,1.02060829359107,1,1,1,1,788480.999137579,89,B
27,3,22/12/90,25,f,57,Lily dented the lorry,Sensible,edin_semantics,emo_sem_emo_sem,0.914462239481509,1,1,1,1,788482.657419512,71,B
27,3,22/12/90,25,f,58,The crate lifted Amy,Non-sensible,edin_semantics,emo_sem_emo_sem,2.76151006040163,2,2,2,1,788486.162259844,144,B
27,3,22/12/90,25,f,59,The monitor punched Erin,Non-sensible,edin_semantics,emo_sem_emo_sem,0.714401174103841,1,1,1,1,788487.620641071,125,B
27,3,22/12/90,25,f,60,Phil typed the letter,Sensible,edin_semantics,emo_sem_emo_sem,1.03221713623498,2,1,1,1,788489.396616643,49,B
27,3,22/12/90,25,f,61,Lara filed the papers,Sensible,edin_semantics,emo_sem_emo_sem,0.843931688810699,2,2,2,1,788490.984328896,24,B
27,3,22/12/90,25,f,62,Tim pulled the handle,Sensible,edin_semantics,emo_sem_emo_sem,0.832316752406769,1,1,1,1,788492.560330318,73,B
27,3,22/12/90,25,f,63,Carl brushed the teeth,Sensible,edin_semantics,emo_sem_emo_sem,0.878841925296001,1,2,2,1,788494.183372953,72,B
27,3,22/12/90,25,f,64,Liz sliced the tomato,Sensible,edin_semantics,emo_sem_emo_sem,0.855755415046588,1,1,1,1,788495.782894821,3,B
27,3,22/12/90,25,f,65,Max lent the bucket,Sensible,edin_semantics,emo_sem_emo_sem,1.40823574841488,2,1,1,1,788497.935214216,19,B
27,3,22/12/90,25,f,66,The shoes counted Lucy,Non-sensible,edin_semantics,emo_sem_emo_sem,0.972709149122238,2,1,1,1,788499.652353392,123,B
27,3,22/12/90,25,f,67,The message typed Eve,Non-sensible,edin_semantics,emo_sem_emo_sem,0.902727994602174,1,2,2,1,788501.29891038,124,B
27,3,22/12/90,25,f,68,The rope pulled Emma,Non-sensible,edin_semantics,emo_sem_emo_sem,0.972815307904966,1,2,2,1,788503.016010107,120,B
27,3,22/12/90,25,f,69,The shed built Rose,Non-sensible,edin_semantics,emo_sem_emo_sem,0.855702496017329,1,1,1,1,788504.615554746,121,B
27,3,22/12/90,25,f,70,Tom knitted the scarf,Sensible,edin_semantics,emo_sem_emo_sem,0.749869786901399,1,2,2,1,788506.10927726,66,B
27,3,22/12/90,25,f,71,The internet searched Max,Non-sensible,edin_semantics,emo_sem_emo_sem,0.76156650739722,1,1,1,1,788507.614684307,85,B
27,3,22/12/90,25,f,72,Tim ate the ham,Sensible,edin_semantics,emo_sem_emo_sem,0.832546068471856,1,1,1,1,788509.190626716,67,B
27,3,22/12/90,25,f,73,The radio fixed Luke,Non-sensible,edin_semantics,emo_sem_emo_sem,0.997128899325617,1,2,2,1,788510.931306864,112,B
27,3,22/12/90,25,f,74,Mary iced the cake,Sensible,edin_semantics,emo_sem_emo_sem,0.89101780380588,2,2,2,1,788512.566108119,44,B
27,3,22/12/90,25,f,75,The curtains measured Rob,Non-sensible,edin_semantics,emo_sem_emo_sem,0.996448007063009,1,2,2,1,788514.306753629,126,B
27,3,22/12/90,25,f,76,Luke climbed the hill,Sensible,edin_semantics,emo_sem_emo_sem,0.973504218040034,1,2,2,1,788516.023875486,68,B
27,3,22/12/90,25,f,77,The trousers ironed Eve,Non-sensible,edin_semantics,emo_sem_emo_sem,4.12523637188133,2,2,2,1,788520.893069781,130,B
27,3,22/12/90,25,f,78,Mary visited the museum,Sensible,edin_semantics,emo_sem_emo_sem,1.77292198000941,2,2,2,1,788523.409919858,16,B
27,3,22/12/90,25,f,79,Phil sniffed the milk,Sensible,edin_semantics,emo_sem_emo_sem,0.867680489318445,1,2,2,1,788525.021176292,18,B
27,3,22/12/90,25,f,80,The ticket took Tim,Non-sensible,edin_semantics,emo_sem_emo_sem,1.4201313162921,2,2,2,1,788527.18526008,128,B
27,3,22/12/90,25,f,81,Matt kicked the bike,Sensible,edin_semantics,emo_sem_emo_sem,6.67756243806798,2,1,1,1,788534.606618798,39,B
27,3,22/12/90,25,f,82,Dan whisked the eggs,Sensible,edin_semantics,emo_sem_emo_sem,0.926131377811544,1,2,2,1,788536.276626636,62,B
27,3,22/12/90,25,f,83,Matt pushed the trolley,Sensible,edin_semantics,emo_sem_emo_sem,1.49073178425897,2,2,2,1,788538.511268557,26,B
27,3,22/12/90,25,f,84,The lemon squeezed Jay,Non-sensible,edin_semantics,emo_sem_emo_sem,2.76118965947535,2,2,2,1,788542.016107285,76,B
27,3,22/12/90,25,f,85,Jane punched the wall,Sensible,edin_semantics,emo_sem_emo_sem,1.11435973690823,1,2,2,1,788543.874337068,50,B
27,3,22/12/90,25,f,86,Jen weighed the flour,Sensible,edin_semantics,emo_sem_emo_sem,0.84380468307063,1,2,2,1,788545.462131747,64,B
27,3,22/12/90,25,f,87,The problem solved Phil,Non-sensible,edin_semantics,emo_sem_emo_sem,3.26713359472342,2,1,1,1,788549.472697924,109,B
27,3,22/12/90,25,f,88,The pillow hugged Kate,Non-sensible,edin_semantics,emo_sem_emo_sem,1.16117804928217,2,2,2,1,788551.378007087,86,B
27,3,22/12/90,25,f,89,Jeff watered the garden,Sensible,edin_semantics,emo_sem_emo_sem,1.26675353944302,2,2,2,1,788553.38916724,54,B
27,3,22/12/90,25,f,90,The turnip mashed Ella,Non-sensible,edin_semantics,emo_sem_emo_sem,1.54918844578788,2,1,1,1,788555.682610277,103,B
27,3,22/12/90,25,f,91,The report wrote Alex,Non-sensible,edin_semantics,emo_sem_emo_sem,2.29033139534295,2,1,1,1,788558.716947063,149,B
27,3,22/12/90,25,f,92,Rob stroked the fur,Sensible,edin_semantics,emo_sem_emo_sem,1.05524848238565,1,1,1,1,788560.516401708,41,B
27,3,22/12/90,25,f,93,Will mashed the potatoes,Sensible,edin_semantics,emo_sem_emo_sem,1.04343309486285,2,2,2,1,788562.304107996,28,B
27,3,22/12/90,25,f,94,The carrots grated Tom,Non-sensible,edin_semantics,emo_sem_emo_sem,0.855239694588818,1,2,2,1,788563.903626657,140,B
27,3,22/12/90,25,f,95,The door kicked Max,Non-sensible,edin_semantics,emo_sem_emo_sem,1.67891941161361,2,2,2,1,788566.326439207,114,B
27,3,22/12/90,25,f,96,The hotline dialed Hugh,Non-sensible,edin_semantics,emo_sem_emo_sem,1.84358723368496,2,2,2,1,788568.913930162,138,B
27,3,22/12/90,25,f,97,Joe wore the jumper,Sensible,edin_semantics,emo_sem_emo_sem,0.820510024437681,1,1,1,1,788570.478167832,25,B
27,3,22/12/90,25,f,98,The pan washed Beth,Non-sensible,edin_semantics,emo_sem_emo_sem,0.972682208404876,2,2,2,1,788572.1952682,132,B
27,3,22/12/90,25,f,99,Ella watched the movie,Sensible,edin_semantics,emo_sem_emo_sem,0.984893687185831,1,1,1,1,788573.924177541,33,B
27,3,22/12/90,25,f,100,Kate served the dish,Sensible,edin_semantics,emo_sem_emo_sem,1.07894596736878,1,2,2,1,788575.747145256,70,B
27,3,22/12/90,25,f,101,Ben chewed the toffee,Sensible,edin_semantics,emo_sem_emo_sem,3.07880549132824,2,1,2,0,788579.569550425,31,B
27,3,22/12/90,25,f,102,The candy sucked Sam,Non-sensible,edin_semantics,emo_sem_emo_sem,1.3496578540653,2,1,1,1,788581.662996221,87,B
27,3,22/12/90,25,f,103,The ribbon cut Lucy,Non-sensible,edin_semantics,emo_sem_emo_sem,1.72620886424556,1,1,1,1,788584.132858002,95,B
27,3,22/12/90,25,f,104,Beth took the photo,Sensible,edin_semantics,emo_sem_emo_sem,1.00848597544245,1,1,1,1,788585.885253793,53,B
27,3,22/12/90,25,f,105,The rope pulled Andy,Non-sensible,edin_semantics,emo_sem_emo_sem,0.984749683178961,2,2,2,1,788587.614163455,148,B
27,3,22/12/90,25,f,106,The button pushed Ian,Non-sensible,edin_semantics,emo_sem_emo_sem,2.54915124212857,2,1,1,1,788590.907348312,101,B
27,3,22/12/90,25,f,107,Ryan painted the picture,Sensible,edin_semantics,emo_sem_emo_sem,1.4552689443808,2,1,1,1,788593.106630023,35,B
27,3,22/12/90,25,f,108,The box labeled Ian,Non-sensible,edin_semantics,emo_sem_emo_sem,0.901979750953615,1,2,2,1,788594.753196633,136,B
27,3,22/12/90,25,f,109,The bath cleaned Jack,Non-sensible,edin_semantics,emo_sem_emo_sem,1.19623228977434,2,2,2,1,788596.693806992,80,B
27,3,22/12/90,25,f,110,Andy grated the cheese,Sensible,edin_semantics,emo_sem_emo_sem,0.949250280973502,2,1,1,1,788598.387390441,65,B
27,3,22/12/90,25,f,111,The wallet carried Leo,Non-sensible,edin_semantics,emo_sem_emo_sem,0.85515245818533,1,2,2,1,788599.986939571,150,B
27,3,22/12/90,25,f,112,The onion sliced Liam,Non-sensible,edin_semantics,emo_sem_emo_sem,1.9840303043602,2,2,2,1,788602.715515041,78,B
27,3,22/12/90,25,f,113,Sean read the book,Sensible,edin_semantics,emo_sem_emo_sem,0.972099777776748,1,2,2,1,788604.432655499,4,B
27,3,22/12/90,25,f,114,Rob mailed the parcel,Sensible,edin_semantics,emo_sem_emo_sem,1.49046815105248,2,2,2,1,788606.667260536,14,B
27,3,22/12/90,25,f,115,Jen fixed the laptop,Sensible,edin_semantics,emo_sem_emo_sem,0.984610169194639,1,1,1,1,788608.39614871,37,B
27,3,22/12/90,25,f,116,Amy hugged the tree,Sensible,edin_semantics,emo_sem_emo_sem,1.87869631755166,2,1,1,1,788611.018945352,11,B
27,3,22/12/90,25,f,117,Erin posted the card,Sensible,edin_semantics,emo_sem_emo_sem,0.796196753741242,1,2,2,1,788612.559625051,36,B
27,3,22/12/90,25,f,118,The gift posted Jack,Non-sensible,edin_semantics,emo_sem_emo_sem,1.03126363060437,1,1,1,1,788614.335543213,111,B
27,3,22/12/90,25,f,119,The hospital visited Tom,Non-sensible,edin_semantics,emo_sem_emo_sem,1.21993811347056,2,1,1,1,788616.299927709,91,B
27,3,22/12/90,25,f,120,Will licked the spoon,Sensible,edin_semantics,emo_sem_emo_sem,2.20684144296683,2,1,1,1,788619.251787382,21,B
27,3,22/12/90,25,f,121,The socks knitted Ryan,Non-sensible,edin_semantics,emo_sem_emo_sem,1.12523989984766,2,1,1,1,788621.121743392,141,B
27,3,22/12/90,25,f,122,The pot scrubbed Josh,Non-sensible,edin_semantics,emo_sem_emo_sem,1.30171028058976,1,1,1,1,788623.168217249,131,B
27,3,22/12/90,25,f,123,Josh ironed the shirt,Sensible,edin_semantics,emo_sem_emo_sem,1.79555627249647,1,1,1,1,788625.708584245,55,B
27,3,22/12/90,25,f,124,The dress wore Kate,Non-sensible,edin_semantics,emo_sem_emo_sem,2.44245226378553,2,2,2,1,788628.895879303,100,B
27,3,22/12/90,25,f,125,Jen searched the room,Sensible,edin_semantics,emo_sem_emo_sem,1.41941578616388,2,2,2,1,788631.059940962,10,B
27,3,22/12/90,25,f,126,The stairs climbed Ben,Non-sensible,edin_semantics,emo_sem_emo_sem,1.09072415111586,2,1,1,1,788632.894716367,143,B
27,3,22/12/90,25,f,127,Ryan carried the gun,Sensible,edin_semantics,emo_sem_emo_sem,0.855450088041835,1,1,1,1,788634.494216105,75,B
27,3,22/12/90,25,f,128,The garage tidied Erin,Non-sensible,edin_semantics,emo_sem_emo_sem,1.70168295502663,2,1,1,1,788636.940532424,77,B
27,3,22/12/90,25,f,129,Leah sucked the lolly,Sensible,edin_semantics,emo_sem_emo_sem,2.66602639923804,2,2,2,1,788640.351266594,12,B
27,3,22/12/90,25,f,130,The fat chewed Adam,Non-sensible,edin_semantics,emo_sem_emo_sem,0.819707578746602,1,2,2,1,788641.915514527,106,B
27,3,22/12/90,25,f,131,Liz labeled the jar,Sensible,edin_semantics,emo_sem_emo_sem,0.843592365272343,1,1,1,1,788643.503272644,61,B
27,3,22/12/90,25,f,132,Beth wiped the table,Sensible,edin_semantics,emo_sem_emo_sem,1.16103212093003,1,2,2,1,788645.408563526,40,B
27,3,22/12/90,25,f,133,Dan carried the folder,Sensible,edin_semantics,emo_sem_emo_sem,2.06635956489481,2,2,2,1,788648.219498404,30,B
27,3,22/12/90,25,f,134,Mike paid the bill,Sensible,edin_semantics,emo_sem_emo_sem,0.890570397139527,1,1,1,1,788649.854320827,59,B
27,3,22/12/90,25,f,135,Tom dialed the number,Sensible,edin_semantics,emo_sem_emo_sem,1.16061293764506,2,1,1,1,788651.759622292,63,B
27,3,22/12/90,25,f,136,John described the pen,Sensible,edin_semantics,emo_sem_emo_sem,0.855082861613482,1,2,2,1,788653.359146406,42,B
27,3,22/12/90,25,f,137,Kate built the house,Sensible,edin_semantics,emo_sem_emo_sem,1.03112251311541,1,2,2,1,788655.135090225,46,B
27,3,22/12/90,25,f,138,The donut iced Joe,Non-sensible,edin_semantics,emo_sem_emo_sem,0.901402772637084,1,1,1,1,788656.781621556,119,B
27,3,22/12/90,25,f,139,The bowl dented Ian,Non-sensible,edin_semantics,emo_sem_emo_sem,1.06673801655415,2,2,2,1,788658.592840273,146,B
27,3,22/12/90,25,f,140,Matt drank the juice,Sensible,edin_semantics,emo_sem_emo_sem,1.04317363107111,2,2,2,1,788660.380561956,60,B
27,3,22/12/90,25,f,141,Leo stored the wine,Sensible,edin_semantics,emo_sem_emo_sem,1.92512367025483,2,2,1,0,788663.050337592,52,B
27,3,22/12/90,25,f,142,The office entered Joe,Non-sensible,edin_semantics,emo_sem_emo_sem,2.34870017901994,2,1,1,1,788666.143509491,133,B
27,3,22/12/90,25,f,143,The nuts mixed Liam,Non-sensible,edin_semantics,emo_sem_emo_sem,0.948981195455417,1,1,1,1,788667.837128861,83,B
27,3,22/12/90,25,f,144,The portrait painted Jay,Non-sensible,edin_semantics,emo_sem_emo_sem,1.29047860659193,1,2,2,1,788669.871838646,110,B
27,3,22/12/90,25,f,145,The rice stored Fred,Non-sensible,edin_semantics,emo_sem_emo_sem,4.46567796717864,2,1,1,1,788675.082038366,127,B
27,3,22/12/90,25,f,146,Carl sold the sofa,Sensible,edin_semantics,emo_sem_emo_sem,0.854558802442625,1,2,2,1,788676.681583968,38,B
27,3,22/12/90,25,f,147,Phil chopped the herbs,Sensible,edin_semantics,emo_sem_emo_sem,1.40782490384299,2,1,1,1,788678.833832162,27,B
27,3,22/12/90,25,f,148,Phil passed the towels,Sensible,edin_semantics,emo_sem_emo_sem,1.2074623600347,1,1,1,1,788680.78619152,43,B
27,3,22/12/90,25,f,149,Sam tidied the room,Sensible,edin_semantics,emo_sem_emo_sem,0.996090723201633,1,2,2,1,788682.526840237,2,B
27,3,22/12/90,25,f,150,The carrots chopped Fred,Non-sensible,edin_semantics,emo_sem_emo_sem,0.913905466673896,1,2,2,1,788684.185210047,102,B
27,3,22/12/90,25,f,24,Max searched the internet,Sensible,edin_semantics,emo_sem_emo_sem,1.21312502247747,1,2,2,1,788737.004625128,85,A
27,3,22/12/90,25,f,25,Tom offered the sweets,Sensible,edin_semantics,emo_sem_emo_sem,1.07871665130369,1,1,1,1,788738.827634857,84,A
27,3,22/12/90,25,f,26,The money offered Matt,Non-sensible,edin_semantics,emo_sem_emo_sem,3.06600933684967,2,2,2,1,788742.638235864,9,A
27,3,22/12/90,25,f,27,The pill swallowed Luke,Non-sensible,edin_semantics,emo_sem_emo_sem,1.16110524546821,1,1,1,1,788744.543549838,22,A
27,3,22/12/90,25,f,28,The house built Kate,Non-sensible,edin_semantics,emo_sem_emo_sem,1.39636808331124,2,1,1,1,788746.684056411,46,A
27,3,22/12/90,25,f,29,Jay painted the portrait,Sensible,edin_semantics,emo_sem_emo_sem,1.19613992189988,2,1,1,1,788748.624659394,110,A
27,3,22/12/90,25,f,30,Sara jumped the hedge,Sensible,edin_semantics,emo_sem_emo_sem,2.3371160319075,2,1,1,1,788751.706085502,92,A
27,3,22/12/90,25,f,31,Phil cancelled the party,Sensible,edin_semantics,emo_sem_emo_sem,1.125397374155,1,1,1,1,788753.576153123,82,A
27,3,22/12/90,25,f,32,Ian labeled the box,Sensible,edin_semantics,emo_sem_emo_sem,2.1250109046232,2,1,1,1,788756.445878854,136,A
27,3,22/12/90,25,f,33,The juice drank Matt,Non-sensible,edin_semantics,emo_sem_emo_sem,1.60714734729845,2,1,1,1,788758.798081956,60,A
27,3,22/12/90,25,f,34,The trolley pushed Matt,Non-sensible,edin_semantics,emo_sem_emo_sem,2.10215146536939,1,1,1,1,788761.644287882,26,A
27,3,22/12/90,25,f,35,The museum visited Mary,Non-sensible,edin_semantics,emo_sem_emo_sem,2.53720403800253,1,1,1,1,788764.925658634,16,A
27,3,22/12/90,25,f,36,Tom visited the hospital,Sensible,edin_semantics,emo_sem_emo_sem,3.60706075234339,2,2,2,1,788769.277298228,91,A
27,3,22/12/90,25,f,37,The picture painted Ryan,Non-sensible,edin_semantics,emo_sem_emo_sem,1.25452249671798,1,2,2,1,788771.276689498,35,A
27,3,22/12/90,25,f,38,Ian pushed the button,Sensible,edin_semantics,emo_sem_emo_sem,1.03150930348784,1,2,2,1,788773.052605415,101,A
27,3,22/12/90,25,f,39,The number dialed Tom,Non-sensible,edin_semantics,emo_sem_emo_sem,1.14892776322085,1,2,2,1,788774.946159165,63,A
27,3,22/12/90,25,f,40,The mirror kissed Max,Non-sensible,edin_semantics,emo_sem_emo_sem,1.00752990401816,1,2,2,1,788776.698575482,23,A
27,3,22/12/90,25,f,41,Jay squeezed the lemon,Sensible,edin_semantics,emo_sem_emo_sem,0.995537798968144,1,1,1,1,788778.439319134,76,A
27,3,22/12/90,25,f,42,Andy pulled the rope,Sensible,edin_semantics,emo_sem_emo_sem,1.24314681871329,2,1,1,1,788780.426875132,148,A
27,3,22/12/90,25,f,43,The room searched Jen,Non-sensible,edin_semantics,emo_sem_emo_sem,2.26630869857036,2,1,1,1,788783.437727712,10,A
27,3,22/12/90,25,f,44,The bushes trimmed Jon,Non-sensible,edin_semantics,emo_sem_emo_sem,1.06636854517274,1,1,1,1,788785.248964069,32,A
27,3,22/12/90,25,f,45,The thread measured Amy,Non-sensible,edin_semantics,emo_sem_emo_sem,0.983934408519417,2,2,2,1,788786.977841338,51,A
27,3,22/12/90,25,f,46,The room tidied Sam,Non-sensible,edin_semantics,emo_sem_emo_sem,1.23142091254704,1,1,1,1,788788.953736215,2,A
27,3,22/12/90,25,f,47,The lolly sucked Leah,Non-sensible,edin_semantics,emo_sem_emo_sem,2.72494810726494,2,1,1,1,788792.423299726,12,A
27,3,22/12/90,25,f,48,Fred served the dessert,Sensible,edin_semantics,emo_sem_emo_sem,1.2899869402172,1,2,2,1,788794.458012398,145,A
27,3,22/12/90,25,f,49,Jack drank the beer,Sensible,edin_semantics,emo_sem_emo_sem,0.772274122107774,1,2,2,1,788795.975163632,135,A
27,3,22/12/90,25,f,50,Tim took the ticket,Sensible,edin_semantics,emo_sem_emo_sem,0.984194193151779,1,1,1,1,788797.70404956,128,A
27,3,22/12/90,25,f,51,Erin tidied the garage,Sensible,edin_semantics,emo_sem_emo_sem,2.38340836076532,2,2,2,1,788800.832541258,77,A
27,3,22/12/90,25,f,52,The lorry dented Lily,Non-sensible,edin_semantics,emo_sem_emo_sem,0.90203010418918,1,2,2,1,788802.479100812,71,A
27,3,22/12/90,25,f,53,The ham ate Tim,Non-sensible,edin_semantics,emo_sem_emo_sem,0.936948037939146,1,2,2,1,788804.160967335,67,A
27,3,22/12/90,25,f,54,Lucy wiped the desk,Sensible,edin_semantics,emo_sem_emo_sem,1.13698536995798,1,2,2,1,788806.04271083,115,A
27,3,22/12/90,25,f,55,The bowl scrubbed Liz,Non-sensible,edin_semantics,emo_sem_emo_sem,1.65469273575582,2,1,1,1,788808.441991387,56,A
27,3,22/12/90,25,f,56,Tim sniffed the perfume,Sensible,edin_semantics,emo_sem_emo_sem,0.878695996943861,1,2,2,1,788810.065033381,93,A
27,3,22/12/90,25,f,57,Leo passed the salt,Sensible,edin_semantics,emo_sem_emo_sem,0.948626797879115,2,1,1,1,788811.758647619,118,A
27,3,22/12/90,25,f,58,Owen swallowed the gum,Sensible,edin_semantics,emo_sem_emo_sem,1.6551039009355,2,2,2,1,788814.157975002,97,A
27,3,22/12/90,25,f,59,Kate wore the dress,Sensible,edin_semantics,emo_sem_emo_sem,4.983030935633,2,1,1,1,788819.885609795,100,A
27,3,22/12/90,25,f,60,The folder carried Dan,Non-sensible,edin_semantics,emo_sem_emo_sem,1.536887806491,2,1,1,1,788822.167296457,30,A
27,3,22/12/90,25,f,61,John carried the kettle,Sensible,edin_semantics,emo_sem_emo_sem,1.03125785768498,1,2,2,1,788823.943240918,105,A
27,3,22/12/90,25,f,62,Rose built the shed,Sensible,edin_semantics,emo_sem_emo_sem,2.93671904271469,2,2,2,1,788827.624483317,121,A
27,3,22/12/90,25,f,63,The tree hugged Amy,Non-sensible,edin_semantics,emo_sem_emo_sem,0.831445993040688,1,2,2,1,788829.200469665,11,A
27,3,22/12/90,25,f,64,Lucy cut the ribbon,Sensible,edin_semantics,emo_sem_emo_sem,0.807344398694113,1,2,2,1,788830.75294615,95,A
27,3,22/12/90,25,f,65,The dish served Kate,Non-sensible,edin_semantics,emo_sem_emo_sem,1.04316112294327,1,1,1,1,788832.54072011,70,A
27,3,22/12/90,25,f,66,The hill climbed Luke,Non-sensible,edin_semantics,emo_sem_emo_sem,2.37234923511278,2,1,2,0,788835.657381666,68,A
27,3,22/12/90,25,f,67,Josh scrubbed the pot,Sensible,edin_semantics,emo_sem_emo_sem,0.925083259353414,1,2,2,1,788837.327428312,131,A
27,3,22/12/90,25,f,68,Ian dented the bowl,Sensible,edin_semantics,emo_sem_emo_sem,0.913400971447118,1,1,1,1,788838.985774068,146,A
27,3,22/12/90,25,f,69,The movie watched Ella,Non-sensible,edin_semantics,emo_sem_emo_sem,0.819662036257796,1,2,2,1,788840.550018153,33,A
27,3,22/12/90,25,f,70,The spoon licked Will,Non-sensible,edin_semantics,emo_sem_emo_sem,1.64280390297063,2,2,2,1,788842.937537845,21,A
27,3,22/12/90,25,f,71,Eve ironed the trousers,Sensible,edin_semantics,emo_sem_emo_sem,1.043074207264,2,1,1,1,788844.725250227,130,A
27,3,22/12/90,25,f,72,The papers filed Lara,Non-sensible,edin_semantics,emo_sem_emo_sem,0.843241816502996,1,1,1,1,788846.312973706,24,A
27,3,22/12/90,25,f,73,The table wiped Beth,Non-sensible,edin_semantics,emo_sem_emo_sem,0.842705569812097,1,1,1,1,788847.900732144,40,A
27,3,22/12/90,25,f,74,The ball squeezed Josh,Non-sensible,edin_semantics,emo_sem_emo_sem,1.1722140830243,1,2,2,1,788849.817800247,1,A
27,3,22/12/90,25,f,75,Adam chewed the fat,Sensible,edin_semantics,emo_sem_emo_sem,0.937063177116215,1,1,1,1,788851.499676392,106,A
27,3,22/12/90,25,f,76,The toffee chewed Ben,Non-sensible,edin_semantics,emo_sem_emo_sem,1.12567159126047,2,2,2,1,788853.369673454,31,A
27,3,22/12/90,25,f,77,Jack cleaned the bath,Sensible,edin_semantics,emo_sem_emo_sem,1.47830542200245,1,1,1,1,788855.592548416,80,A
27,3,22/12/90,25,f,78,Luke watered the plants,Sensible,edin_semantics,emo_sem_emo_sem,2.31346569303423,2,2,2,1,788858.650468831,129,A
27,3,22/12/90,25,f,79,The wall punched Jane,Non-sensible,edin_semantics,emo_sem_emo_sem,1.01963522389997,1,1,1,1,788860.414667501,50,A
27,3,22/12/90,25,f,80,Tom whisked the cream,Sensible,edin_semantics,emo_sem_emo_sem,0.831348493695259,1,2,2,1,788861.990622098,137,A
27,3,22/12/90,25,f,81,The photo took Beth,Non-sensible,edin_semantics,emo_sem_emo_sem,0.925251638283953,1,2,2,1,788863.66073417,53,A
27,3,22/12/90,25,f,82,Josh crushed the ice,Sensible,edin_semantics,emo_sem_emo_sem,0.760722688632086,1,2,2,1,788865.166132558,81,A
27,3,22/12/90,25,f,83,The sheets counted Bill,Non-sensible,edin_semantics,emo_sem_emo_sem,0.85524899547454,1,1,1,1,788866.765666293,48,A
27,3,22/12/90,25,f,84,Jack posted the gift,Sensible,edin_semantics,emo_sem_emo_sem,0.737170811276883,1,2,2,1,788868.247568288,111,A
27,3,22/12/90,25,f,85,Liam mixed the nuts,Sensible,edin_semantics,emo_sem_emo_sem,2.72500968573149,2,2,2,1,788871.717163871,83,A
27,3,22/12/90,25,f,86,Fred lent the car,Sensible,edin_semantics,emo_sem_emo_sem,1.18413178075571,1,1,1,1,788873.646072057,94,A
27,3,22/12/90,25,f,87,The card posted Erin,Non-sensible,edin_semantics,emo_sem_emo_sem,1.03055964654777,2,1,1,1,788875.421924792,36,A
27,3,22/12/90,25,f,88,Lucy counted the shoes,Sensible,edin_semantics,emo_sem_emo_sem,1.13811655540485,2,2,2,1,788877.303697151,123,A
27,3,22/12/90,25,f,89,The lever pulled Hugh,Non-sensible,edin_semantics,emo_sem_emo_sem,2.30228276876733,2,2,2,1,788880.349849966,45,A
27,3,22/12/90,25,f,90,The wine stored Leo,Non-sensible,edin_semantics,emo_sem_emo_sem,0.961447968729772,1,1,1,1,788882.055203902,52,A
27,3,22/12/90,25,f,91,The potatoes mashed Will,Non-sensible,edin_semantics,emo_sem_emo_sem,0.890489254612476,1,1,1,1,788883.690034022,28,A
27,3,22/12/90,25,f,92,Sam sucked the candy,Sensible,edin_semantics,emo_sem_emo_sem,0.972317868610844,1,2,2,1,788885.407153633,87,A
27,3,22/12/90,25,f,93,The bike kicked Matt,Non-sensible,edin_semantics,emo_sem_emo_sem,1.85447637690231,2,2,2,1,788888.006349969,39,A
27,3,22/12/90,25,f,94,The cheese grated Andy,Non-sensible,edin_semantics,emo_sem_emo_sem,1.81917870859616,2,2,2,1,788890.570329779,65,A
27,3,22/12/90,25,f,95,Bill trimmed the hair,Sensible,edin_semantics,emo_sem_emo_sem,1.06668189028278,1,2,2,1,788892.381495256,107,A
27,3,22/12/90,25,f,96,Josh taught the rules,Sensible,edin_semantics,emo_sem_emo_sem,0.854903898900375,1,1,1,1,788893.98102001,90,A
27,3,22/12/90,25,f,97,The jumper wore Joe,Non-sensible,edin_semantics,emo_sem_emo_sem,3.97204814164434,2,2,2,1,788898.697254751,25,A
27,3,22/12/90,25,f,98,Amy lifted the crate,Sensible,edin_semantics,emo_sem_emo_sem,1.21975818858482,2,1,1,1,788900.661367596,144,A
27,3,22/12/90,25,f,99,Kate hugged the pillow,Sensible,edin_semantics,emo_sem_emo_sem,1.5961106721079,1,1,1,1,788903.001843188,86,A
27,3,22/12/90,25,f,100,Luke read the poster,Sensible,edin_semantics,emo_sem_emo_sem,1.79568969283719,2,2,2,1,788905.542267913,79,A
27,3,22/12/90,25,f,101,The sofa sold Carl,Non-sensible,edin_semantics,emo_sem_emo_sem,1.30204094469082,1,1,1,1,788907.588691096,38,A
27,3,22/12/90,25,f,102,Ben climbed the stairs,Sensible,edin_semantics,emo_sem_emo_sem,5.71185656811576,2,2,2,1,788914.045609192,143,A
27,3,22/12/90,25,f,103,Liam sliced the onion,Sensible,edin_semantics,emo_sem_emo_sem,1.40790283936076,2,1,1,1,788916.197912871,78,A
27,3,22/12/90,25,f,104,Phil solved the problem,Sensible,edin_semantics,emo_sem_emo_sem,2.13700236822478,2,2,2,1,788919.079392412,109,A
27,3,22/12/90,25,f,105,Fred stored the rice,Sensible,edin_semantics,emo_sem_emo_sem,5.900708410074,2,2,2,1,788925.724450989,127,A
27,3,22/12/90,25,f,106,Ian mailed the invite,Sensible,edin_semantics,emo_sem_emo_sem,1.61910449364223,2,2,1,0,788928.088475251,89,A
27,3,22/12/90,25,f,107,Joe entered the office,Sensible,edin_semantics,emo_sem_emo_sem,0.749075038707815,1,2,2,1,788929.582090002,133,A
27,3,22/12/90,25,f,108,Joe iced the donut,Sensible,edin_semantics,emo_sem_emo_sem,1.39565159101039,2,2,2,1,788931.722664889,119,A
27,3,22/12/90,25,f,109,Dan brushed the hair,Sensible,edin_semantics,emo_sem_emo_sem,1.04327048896812,1,2,2,1,788933.510322749,147,A
27,3,22/12/90,25,f,110,Ryan knitted the socks,Sensible,edin_semantics,emo_sem_emo_sem,0.948633853811771,1,2,2,1,788935.203940836,141,A
27,3,22/12/90,25,f,111,The garden watered Jeff,Non-sensible,edin_semantics,emo_sem_emo_sem,1.03074374073185,1,1,1,1,788936.979879524,54,A
27,3,22/12/90,25,f,112,The scarf knitted Tom,Non-sensible,edin_semantics,emo_sem_emo_sem,1.40744965954218,2,1,1,1,788939.132166847,66,A
27,3,22/12/90,25,f,113,The dishes washed Mark,Non-sensible,edin_semantics,emo_sem_emo_sem,3.78307314252015,2,2,2,1,788943.660242825,57,A
27,3,22/12/90,25,f,114,Adam watched the opera,Sensible,edin_semantics,emo_sem_emo_sem,1.07806590700056,1,1,1,1,788945.483208936,108,A
27,3,22/12/90,25,f,115,The parcel mailed Rob,Non-sensible,edin_semantics,emo_sem_emo_sem,1.12532617396209,2,1,1,1,788947.353249296,14,A
27,3,22/12/90,25,f,116,Erin described the church,Sensible,edin_semantics,emo_sem_emo_sem,0.843307243660092,1,2,2,1,788948.941007092,117,A
27,3,22/12/90,25,f,117,Ella mashed the turnip,Sensible,edin_semantics,emo_sem_emo_sem,0.83095240232069,1,2,2,1,788950.516987346,103,A
27,3,22/12/90,25,f,118,The milk sniffed Phil,Non-sensible,edin_semantics,emo_sem_emo_sem,1.19598052324727,1,1,1,1,788952.457611496,18,A
27,3,22/12/90,25,f,119,The paper cut Jon,Non-sensible,edin_semantics,emo_sem_emo_sem,0.901798543171026,1,1,1,1,788954.104151165,20,A
27,3,22/12/90,25,f,120,Anna polished the trophy,Sensible,edin_semantics,emo_sem_emo_sem,0.842483309679665,1,1,1,1,788955.691907678,104,A
27,3,22/12/90,25,f,121,The book read Sean,Non-sensible,edin_semantics,emo_sem_emo_sem,0.936809165519662,1,1,1,1,788957.373739564,4,A
27,3,22/12/90,25,f,122,Tom grated the carrots,Sensible,edin_semantics,emo_sem_emo_sem,1.83062045532279,2,1,1,1,788959.949471258,140,A
27,3,22/12/90,25,f,123,The pen described John,Non-sensible,edin_semantics,emo_sem_emo_sem,1.93667831097264,2,1,1,1,788962.631002948,42,A
27,3,22/12/90,25,f,124,The letter typed Phil,Non-sensible,edin_semantics,emo_sem_emo_sem,2.12432520149741,2,2,2,1,788965.500743433,49,A
27,3,22/12/90,25,f,125,The towels passed Phil,Non-sensible,edin_semantics,emo_sem_emo_sem,3.18327513302211,2,2,2,1,788969.428967199,43,A
27,3,22/12/90,25,f,126,Eve typed the message,Sensible,edin_semantics,emo_sem_emo_sem,0.97232396225445,2,1,1,1,788971.146088414,124,A
27,3,22/12/90,25,f,127,Alex dusted the house,Sensible,edin_semantics,emo_sem_emo_sem,0.937269401154481,1,1,1,1,788972.827938901,122,A
27,3,22/12/90,25,f,128,The kettle got Lily,Non-sensible,edin_semantics,emo_sem_emo_sem,1.02941563224886,2,2,2,1,788974.60388689,13,A
27,3,22/12/90,25,f,129,Max kicked the door,Sensible,edin_semantics,emo_sem_emo_sem,0.901229903567582,1,1,1,1,788976.2504442,114,A
27,3,22/12/90,25,f,130,The box lifted Kate,Non-sensible,edin_semantics,emo_sem_emo_sem,1.70157711696811,2,2,2,1,788978.696768536,69,A
27,3,22/12/90,25,f,131,The puzzle solved Joe,Non-sensible,edin_semantics,emo_sem_emo_sem,0.948625515098684,1,1,1,1,788980.390366739,34,A
27,3,22/12/90,25,f,132,Ben got the radio,Sensible,edin_semantics,emo_sem_emo_sem,0.854456492234021,2,1,1,1,788981.989892456,88,A
27,3,22/12/90,25,f,133,The garlic crushed Erin,Non-sensible,edin_semantics,emo_sem_emo_sem,0.760341350571252,1,1,1,1,788983.495332537,6,A
27,3,22/12/90,25,f,134,Ian filed the report,Sensible,edin_semantics,emo_sem_emo_sem,0.795983153162524,1,2,2,1,788985.036051685,99,A
27,3,22/12/90,25,f,135,Leo carried the wallet,Sensible,edin_semantics,emo_sem_emo_sem,1.03109012020286,1,1,1,1,788986.81199358,150,A
27,3,22/12/90,25,f,136,The eggs whisked Dan,Non-sensible,edin_semantics,emo_sem_emo_sem,1.61915067757946,2,1,1,1,788989.175998278,62,A
27,3,22/12/90,25,f,137,Ryan stroked the blanket,Sensible,edin_semantics,emo_sem_emo_sem,1.69000130845234,2,1,1,1,788991.610555977,116,A
27,3,22/12/90,25,f,138,The shelf dusted Jake,Non-sensible,edin_semantics,emo_sem_emo_sem,0.984095731633715,1,2,2,1,788993.339431001,47,A
27,3,22/12/90,25,f,139,The gun carried Ryan,Non-sensible,edin_semantics,emo_sem_emo_sem,1.12534349283669,1,2,2,1,788995.209457249,75,A
27,3,22/12/90,25,f,140,Zoe paid the debt,Sensible,edin_semantics,emo_sem_emo_sem,1.73635329166427,2,1,1,1,788997.691065784,134,A
27,3,22/12/90,25,f,141,The coins polished Jon,Non-sensible,edin_semantics,emo_sem_emo_sem,0.995836070156656,1,2,2,1,788999.431759402,29,A
27,3,22/12/90,25,f,142,Mike ate the steak,Sensible,edin_semantics,emo_sem_emo_sem,2.64218491013162,2,1,1,1,789002.818933998,142,A
27,3,22/12/90,25,f,143,The room entered Ryan,Non-sensible,edin_semantics,emo_sem_emo_sem,0.960248469491489,1,1,1,1,789004.524300763,58,A
27,3,22/12/90,25,f,144,Alex wrote the report,Sensible,edin_semantics,emo_sem_emo_sem,1.14833506953437,2,2,2,1,789006.417876322,149,A
27,3,22/12/90,25,f,145,Hugh dialed the hotline,Sensible,edin_semantics,emo_sem_emo_sem,1.19554113445338,1,1,1,1,789008.358477701,138,A
27,3,22/12/90,25,f,146,The shirt ironed Josh,Non-sensible,edin_semantics,emo_sem_emo_sem,0.995755889685825,1,2,2,1,789010.099135398,55,A
27,3,22/12/90,25,f,147,Hugh kissed the rose,Sensible,edin_semantics,emo_sem_emo_sem,2.17094113852363,2,1,1,1,789013.015923832,98,A
27,3,22/12/90,25,f,148,The tomato sliced Liz,Non-sensible,edin_semantics,emo_sem_emo_sem,4.01822918001562,2,2,2,1,789017.779156168,3,A
27,3,22/12/90,25,f,149,Rob measured the curtains,Sensible,edin_semantics,emo_sem_emo_sem,0.654563164222054,1,1,1,1,789019.178760654,126,A
27,3,22/12/90,25,f,150,Jay sold the bed,Sensible,edin_semantics,emo_sem_emo_sem,1.23093149135821,1,2,2,1,789021.154597481,113,A
27,3,22/12/90,25,f,151,The handle pulled Tim,Non-sensible,edin_semantics,emo_sem_emo_sem,1.03116869705264,1,2,2,1,789022.930553168,73,A
27,3,22/12/90,25,f,152,The story wrote Ewan,Non-sensible,edin_semantics,emo_sem_emo_sem,1.27846373023931,1,1,1,1,789024.953501768,74,A
27,3,22/12/90,25,f,153,The teeth brushed Carl,Non-sensible,edin_semantics,emo_sem_emo_sem,1.83100852859207,2,1,1,1,789027.529185354,72,A
27,3,22/12/90,25,f,154,The fence jumped Jon,Non-sensible,edin_semantics,emo_sem_emo_sem,3.58318783249706,2,2,2,1,789031.857298407,17,A
27,3,22/12/90,25,f,155,Beth washed the pan,Sensible,edin_semantics,emo_sem_emo_sem,1.36015667894389,2,1,1,1,789033.962536498,132,A
27,3,22/12/90,25,f,156,The fur stroked Rob,Non-sensible,edin_semantics,emo_sem_emo_sem,1.08975140214898,1,2,2,1,789035.797285925,41,A
27,3,22/12/90,25,f,157,Luke fixed the radio,Sensible,edin_semantics,emo_sem_emo_sem,1.21916036342736,2,1,1,1,789037.761391714,112,A
27,3,22/12/90,25,f,158,The plans cancelled Ian,Non-sensible,edin_semantics,emo_sem_emo_sem,1.00746319408063,1,2,2,1,789039.513821181,7,A
27,3,22/12/90,25,f,159,The floor cleaned Tim,Non-sensible,edin_semantics,emo_sem_emo_sem,0.783676099264994,1,2,2,1,789041.042779143,5,A
27,3,22/12/90,25,f,160,The jar labeled Liz,Non-sensible,edin_semantics,emo_sem_emo_sem,1.67803005035967,2,2,2,1,789043.465592014,61,A
27,3,22/12/90,25,f,161,The herbs chopped Phil,Non-sensible,edin_semantics,emo_sem_emo_sem,1.13655977230519,1,2,2,1,789045.347354752,27,A
27,3,22/12/90,25,f,162,Liz weighed the sugar,Sensible,edin_semantics,emo_sem_emo_sem,1.642434110865,2,2,2,1,789047.734900743,139,A
27,3,22/12/90,25,f,163,Fred chopped the carrots,Sensible,edin_semantics,emo_sem_emo_sem,0.854266945738345,2,1,1,1,789049.334395671,102,A
27,3,22/12/90,25,f,164,The bucket lent Max,Non-sensible,edin_semantics,emo_sem_emo_sem,0.984648335026577,1,2,2,1,789051.063273581,19,A
27,3,22/12/90,25,f,165,The laptop fixed Jen,Non-sensible,edin_semantics,emo_sem_emo_sem,1.64313488791231,2,2,2,1,789053.450813158,37,A
27,3,22/12/90,25,f,166,The fruits mixed Jack,Non-sensible,edin_semantics,emo_sem_emo_sem,1.18344736052677,2,1,1,1,789055.379649823,8,A
27,3,22/12/90,25,f,167,Jane licked the plate,Sensible,edin_semantics,emo_sem_emo_sem,0.92497004463803,1,1,1,1,789057.049711222,96,A
27,3,22/12/90,25,f,168,Erin punched the monitor,Sensible,edin_semantics,emo_sem_emo_sem,1.36058131442405,2,2,2,1,789059.154986838,125,A
27,3,22/12/90,25,f,169,The lesson taught Eve,Non-sensible,edin_semantics,emo_sem_emo_sem,3.28915883670561,2,2,2,1,789063.189055179,15,A
27,3,22/12/90,25,f,170,The bill paid Mike,Non-sensible,edin_semantics,emo_sem_emo_sem,1.57142247771844,2,2,2,1,789065.506018663,59,A
27,3,22/12/90,25,f,171,The cake iced Mary,Non-sensible,edin_semantics,emo_sem_emo_sem,0.925182362436317,1,1,1,1,789067.17611438,44,A
27,3,22/12/90,25,f,172,Emma pulled the rope,Sensible,edin_semantics,emo_sem_emo_sem,0.890404263278469,1,1,1,1,789068.810883242,120,A
27,3,22/12/90,25,f,173,The flour weighed Jen,Non-sensible,edin_semantics,emo_sem_emo_sem,0.772265783394687,1,1,1,1,789070.328099583,64,A
