subject_column,AssignedList_column,subject_dob_column,subject_age_column,subject_gender_column,trialnum_column,Stim_column,Type_column,Experiment_column,OrderGroup_column,MeanAffectivity_column,ReactionTime_column,StimSide_column,StimPosition_column,Response_column,Valid_column,TrialEndSecs_column,PairID_column,List_column
29,1,9/8/92,23,f,1,The bridge went over Claire,Neutral sentence,edin_emo,emo_sem_emo_sem,-1.113636364,2.16653249808587,1,1,2,0,870070.779225124,17,A
29,1,9/8/92,23,f,2,Dad slapped the toddler,Negative sentence,edin_emo,emo_sem_emo_sem,-4.363636364,4.00665080593899,1,2,1,0,870075.530906667,4,A
29,1,9/8/92,23,f,3,The car crushed the officer,Negative sentence,edin_emo,emo_sem_emo_sem,-4.581395349,1.12425913289189,2,1,2,0,870077.400768385,7,A
29,1,9/8/92,23,f,4,The people ate the fish,Neutral sentence,edin_emo,emo_sem_emo_sem,1.404761905,1.52580623026006,2,2,1,0,870079.670673015,20,A
29,1,9/8/92,23,f,5,The brick hit the baby,Negative sentence,edin_emo,emo_sem_emo_sem,-4.243902439,2.98485391761642,1,2,1,0,870083.398980682,8,A
29,1,9/8/92,23,f,6,The child scared the dog,Neutral sentence,edin_emo,emo_sem_emo_sem,-1.136363636,2.94882115535438,1,1,2,0,870087.092005755,21,A
29,1,9/8/92,23,f,7,John kicked the baby,Negative sentence,edin_emo,emo_sem_emo_sem,-4.522727273,3.58395179163199,1,1,2,0,870091.42009764,11,A
29,1,9/8/92,23,f,8,The pig was a male,Neutral sentence,edin_emo,emo_sem_emo_sem,0.071428571,1.26669356459752,2,1,2,0,870093.431258435,15,A
29,1,9/8/92,23,f,9,The man ate the snake,Neutral sentence,edin_emo,emo_sem_emo_sem,-1.219512195,0.97241472650785,2,1,2,0,870095.148384461,23,A
29,1,9/8/92,23,f,10,The cat licked Sally,Neutral sentence,edin_emo,emo_sem_emo_sem,2.255813953,1.60816724225879,2,1,2,0,870097.500660366,19,A
29,1,9/8/92,23,f,11,The child spun the washer,Neutral sentence,edin_emo,emo_sem_emo_sem,-0.068181818,1.36122692725621,1,2,1,0,870099.605889477,22,A
29,1,9/8/92,23,f,12,Andy cut the paper,Neutral sentence,edin_emo,emo_sem_emo_sem,0.186046512,3.25458311312832,2,2,1,0,870103.60471307,14,A
29,1,9/8/92,23,f,13,The boar ate Bobby,Negative sentence,edin_emo,emo_sem_emo_sem,-4.658536585,1.63143720524386,1,2,1,0,870105.98045554,2,A
29,1,9/8/92,23,f,14,Mum hit the baby,Negative sentence,edin_emo,emo_sem_emo_sem,-4.195121951,3.08941336150747,2,2,1,0,870109.814585974,12,A
29,1,9/8/92,23,f,15,Sam hit the ball,Neutral sentence,edin_emo,emo_sem_emo_sem,1.931818182,3.60599627706688,1,1,2,0,870114.166259564,13,A
29,1,9/8/92,23,f,16,The bunny outwitted the hunter,Neutral sentence,edin_emo,emo_sem_emo_sem,2.681818182,7.52339793101419,1,2,1,0,870122.434396376,18,A
29,1,9/8/92,23,f,17,The car dragged Claire,Negative sentence,edin_emo,emo_sem_emo_sem,-4.627906977,2.23139140626881,2,2,1,0,870125.40995193,10,A
29,1,9/8/92,23,f,18,The octopus caught Harry,Negative sentence,edin_emo,emo_sem_emo_sem,-3.146341463,1.96010189969093,1,1,2,0,870128.115015292,5,A
29,1,9/8/92,23,f,19,The dog chased baby,Negative sentence,edin_emo,emo_sem_emo_sem,-2.833333333,6.58307269343641,2,2,1,0,870135.442251492,6,A
29,1,9/8/92,23,f,20,The fire killed the fireman,Negative sentence,edin_emo,emo_sem_emo_sem,-4.837209302,0.960738852969371,2,1,2,0,870137.147620822,3,A
29,1,9/8/92,23,f,21,The photographer shot the actor,Neutral sentence,edin_emo,emo_sem_emo_sem,-1.488372093,3.27804166055284,1,2,1,0,870141.169914829,16,A
29,1,9/8/92,23,f,22,The patient injected the nurse,Negative sentence,edin_emo,emo_sem_emo_sem,-3.511627907,3.32469127327204,1,1,2,0,870145.23932125,1,A
29,1,9/8/92,23,f,23,Steve jumped on the dog,Negative sentence,edin_emo,emo_sem_emo_sem,-2.311111111,0.949470296036452,2,1,2,0,870146.932886098,9,A
29,1,9/8/92,23,f,24,Claire went over the bridge,Negative sentence,edin_emo,emo_sem_emo_sem,-1,1.73155433277134,1,1,2,0,870153.225152086,17,B
29,1,9/8/92,23,f,25,Claire dragged the car,Neutral sentence,edin_emo,emo_sem_emo_sem,-1.414634146,1.03159012540709,1,2,1,0,870155.001100717,10,B
29,1,9/8/92,23,f,26,The snake ate the man,Negative sentence,edin_emo,emo_sem_emo_sem,-4.511627907,1.98436642065644,1,1,2,0,870157.729733916,23,B
29,1,9/8/92,23,f,27,The baby hit the brick,Neutral sentence,edin_emo,emo_sem_emo_sem,-2.348837209,3.67783280648291,2,2,1,0,870162.151935491,8,B
29,1,9/8/92,23,f,28,The ball hit Sam,Negative sentence,edin_emo,emo_sem_emo_sem,-2.644444444,1.25537497503683,2,1,2,0,870164.151305915,13,B
29,1,9/8/92,23,f,29,The hunter outwitted the bunny,Negative sentence,edin_emo,emo_sem_emo_sem,-1.386363636,3.91312290576752,1,2,1,0,870168.808727351,18,B
29,1,9/8/92,23,f,30,The washer spun the child,Negative sentence,edin_emo,emo_sem_emo_sem,-3.536585366,2.06627585657407,1,2,1,0,870171.619677623,22,B
29,1,9/8/92,23,f,31,The actor shot the photographer,Negative sentence,edin_emo,emo_sem_emo_sem,-3.911111111,4.03085438988637,2,2,1,0,870176.394739779,16,B
29,1,9/8/92,23,f,32,The toddler slapped dad,Neutral sentence,edin_emo,emo_sem_emo_sem,-2.585365854,3.17196841014083,1,2,1,0,870180.311185041,4,B
29,1,9/8/92,23,f,33,The male was a pig,Negative sentence,edin_emo,emo_sem_emo_sem,-2.23255814,2.1372127616778,2,1,2,0,870183.192647904,15,B
29,1,9/8/92,23,f,34,The baby kicked john,Neutral sentence,edin_emo,emo_sem_emo_sem,-1.75,1.40756800572854,1,1,2,0,870185.344956074,11,B
29,1,9/8/92,23,f,35,The baby hit Mum,Neutral sentence,edin_emo,emo_sem_emo_sem,-2.046511628,1.96048099279869,1,2,1,0,870188.050023284,12,B
29,1,9/8/92,23,f,36,The fish ate the people,Negative sentence,edin_emo,emo_sem_emo_sem,-3.933333333,1.94904149102513,2,2,1,0,870190.743330913,20,B
29,1,9/8/92,23,f,37,The fireman killed the fire,Neutral sentence,edin_emo,emo_sem_emo_sem,3.545454545,2.06674122367986,1,1,2,0,870193.554269319,3,B
29,1,9/8/92,23,f,38,Harry caught the octopus,Neutral sentence,edin_emo,emo_sem_emo_sem,0.181818182,1.16092275478877,2,1,2,0,870195.459598687,5,B
29,1,9/8/92,23,f,39,The dog jumped on Steve,Neutral sentence,edin_emo,emo_sem_emo_sem,-0.909090909,2.17271889897529,1,1,2,0,870198.376360822,9,B
29,1,9/8/92,23,f,40,The nurse injected the patient,Neutral sentence,edin_emo,emo_sem_emo_sem,-0.511627907,2.65461415890604,1,1,2,0,870201.775435797,1,B
29,1,9/8/92,23,f,41,The paper cut Andy,Negative sentence,edin_emo,emo_sem_emo_sem,-2.022727273,3.14866028132383,1,2,1,0,870205.668283959,14,B
29,1,9/8/92,23,f,42,The dog scared the child,Negative sentence,edin_emo,emo_sem_emo_sem,-2.80952381,4.47778136271518,1,1,2,0,870210.890286558,21,B
29,1,9/8/92,23,f,43,Baby chased the dog,Neutral sentence,edin_emo,emo_sem_emo_sem,0.414634146,3.78376814641524,2,2,1,0,870215.418301278,6,B
29,1,9/8/92,23,f,44,Sally licked the cat,Negative sentence,edin_emo,emo_sem_emo_sem,-1.048780488,5.79517268936615,1,1,2,0,870221.957539333,19,B
29,1,9/8/92,23,f,45,The officer crushed the car,Neutral sentence,edin_emo,emo_sem_emo_sem,-3.222222222,1.07853993366007,2,1,2,0,870223.780528537,7,B
29,1,9/8/92,23,f,46,Bobby ate the boar,Neutral sentence,edin_emo,emo_sem_emo_sem,-0.955555556,2.9838458893355,2,2,1,0,870227.508796755,2,B
