subject_column,AssignedList_column,subject_dob_column,subject_age_column,subject_gender_column,trialnum_column,Stim_column,Type_column,Experiment_column,OrderGroup_column,ReactionTime_column,StimSide_column,StimPosition_column,Response_column,Valid_column,TrialEndSecs_column,PairID_column,List_column
29,1,9/8/92,23,f,1,Adam chewed the fat,Sensible,edin_semantics,emo_sem_emo_sem,1.49622574693058,2,1,2,0,870235.271213816,106,A
29,1,9/8/92,23,f,2,The floor cleaned Tim,Non-sensible,edin_semantics,emo_sem_emo_sem,2.05458041897509,1,2,1,0,870238.070392961,5,A
29,1,9/8/92,23,f,3,Alex wrote the report,Sensible,edin_semantics,emo_sem_emo_sem,1.73739435430616,2,2,1,0,870240.551954991,149,A
29,1,9/8/92,23,f,4,The laptop fixed Jen,Non-sensible,edin_semantics,emo_sem_emo_sem,3.31382650497835,2,2,1,0,870244.609595095,37,A
29,1,9/8/92,23,f,5,Jay sold the bed,Sensible,edin_semantics,emo_sem_emo_sem,2.04400301736314,2,2,1,0,870247.396992528,113,A
29,1,9/8/92,23,f,6,The movie watched Ella,Non-sensible,edin_semantics,emo_sem_emo_sem,2.05476836196613,1,2,1,0,870250.196138318,33,A
29,1,9/8/92,23,f,7,Ryan stroked the blanket,Sensible,edin_semantics,emo_sem_emo_sem,2.10248245019466,1,1,2,0,870253.042342,116,A
29,1,9/8/92,23,f,8,The herbs chopped Phil,Non-sensible,edin_semantics,emo_sem_emo_sem,2.0084276041016,2,2,1,0,870255.794476723,27,A
29,1,9/8/92,23,f,9,The dishes washed Mark,Non-sensible,edin_semantics,emo_sem_emo_sem,4.97208919399418,1,2,1,0,870261.510442057,57,A
29,1,9/8/92,23,f,10,Luke fixed the radio,Sensible,edin_semantics,emo_sem_emo_sem,1.98505853803363,1,1,2,0,870264.239033563,112,A
29,1,9/8/92,23,f,11,Beth washed the pan,Sensible,edin_semantics,emo_sem_emo_sem,0.973333914880641,2,1,2,0,870265.956148043,132,A
29,1,9/8/92,23,f,12,Lucy cut the ribbon,Sensible,edin_semantics,emo_sem_emo_sem,5.86615770275239,2,2,1,0,870272.565923383,95,A
29,1,9/8/92,23,f,13,Tom whisked the cream,Sensible,edin_semantics,emo_sem_emo_sem,2.18458880914841,2,2,1,0,870275.494498661,137,A
29,1,9/8/92,23,f,14,The tomato sliced Liz,Non-sensible,edin_semantics,emo_sem_emo_sem,5.40711065672804,1,2,1,0,870281.645581674,3,A
29,1,9/8/92,23,f,15,Leo carried the wallet,Sensible,edin_semantics,emo_sem_emo_sem,1.23185196251143,2,1,2,0,870283.621427481,150,A
29,1,9/8/92,23,f,16,The eggs whisked Dan,Non-sensible,edin_semantics,emo_sem_emo_sem,2.33778826461639,1,1,2,0,870286.702874436,62,A
29,1,9/8/92,23,f,17,The kettle got Lily,Non-sensible,edin_semantics,emo_sem_emo_sem,3.80790213367436,2,2,1,0,870291.25443975,13,A
29,1,9/8/92,23,f,18,Kate hugged the pillow,Sensible,edin_semantics,emo_sem_emo_sem,1.13789269165136,2,1,2,0,870293.136252842,86,A
29,1,9/8/92,23,f,19,The fence jumped Jon,Non-sensible,edin_semantics,emo_sem_emo_sem,9.31162475049496,1,2,1,0,870303.192064191,17,A
29,1,9/8/92,23,f,20,The teeth brushed Carl,Non-sensible,edin_semantics,emo_sem_emo_sem,4.30185300169978,1,1,2,0,870308.237607634,72,A
29,1,9/8/92,23,f,21,The toffee chewed Ben,Non-sensible,edin_semantics,emo_sem_emo_sem,1.72606357734185,2,2,1,0,870310.707454663,31,A
29,1,9/8/92,23,f,22,The bike kicked Matt,Non-sensible,edin_semantics,emo_sem_emo_sem,2.44348338409327,1,2,1,0,870313.894725026,39,A
29,1,9/8/92,23,f,23,Bill trimmed the hair,Sensible,edin_semantics,emo_sem_emo_sem,3.43111186509486,2,2,1,0,870318.06997474,107,A
29,1,9/8/92,23,f,24,The scarf knitted Tom,Non-sensible,edin_semantics,emo_sem_emo_sem,5.53667196072638,2,1,2,0,870324.35042951,66,A
29,1,9/8/92,23,f,25,Hugh dialed the hotline,Sensible,edin_semantics,emo_sem_emo_sem,7.94776918820571,1,1,2,0,870333.041968359,138,A
29,1,9/8/92,23,f,26,The hill climbed Luke,Non-sensible,edin_semantics,emo_sem_emo_sem,2.67814486869611,2,1,2,0,870336.46447943,68,A
29,1,9/8/92,23,f,27,Ian labeled the box,Sensible,edin_semantics,emo_sem_emo_sem,2.80795216630213,1,1,2,0,870340.016333394,136,A
29,1,9/8/92,23,f,28,The box lifted Kate,Non-sensible,edin_semantics,emo_sem_emo_sem,1.47892088699155,2,2,1,0,870342.23922343,69,A
29,1,9/8/92,23,f,29,The puzzle solved Joe,Non-sensible,edin_semantics,emo_sem_emo_sem,7.5943746054545,1,1,2,0,870350.577888227,34,A
29,1,9/8/92,23,f,30,The book read Sean,Non-sensible,edin_semantics,emo_sem_emo_sem,1.24381712707691,2,1,2,0,870352.565519274,4,A
29,1,9/8/92,23,f,31,The card posted Erin,Non-sensible,edin_semantics,emo_sem_emo_sem,2.00838591030333,1,1,2,0,870355.317647904,36,A
29,1,9/8/92,23,f,32,Luke watered the plants,Sensible,edin_semantics,emo_sem_emo_sem,4.13659633451607,2,2,2,1,870360.198556881,129,A
29,1,9/8/92,23,f,33,The garden watered Jeff,Non-sensible,edin_semantics,emo_sem_emo_sem,5.32484169176314,1,1,2,0,870366.267386323,54,A
29,1,9/8/92,23,f,34,Jane licked the plate,Sensible,edin_semantics,emo_sem_emo_sem,3.84279889974277,1,1,2,0,870370.854176181,96,A
29,1,9/8/92,23,f,35,The jar labeled Liz,Non-sensible,edin_semantics,emo_sem_emo_sem,4.58402651979122,2,2,1,0,870376.182012772,61,A
29,1,9/8/92,23,f,36,The room entered Ryan,Non-sensible,edin_semantics,emo_sem_emo_sem,1.31423799088225,2,1,2,0,870378.240244608,58,A
29,1,9/8/92,23,f,37,Tom visited the hospital,Sensible,edin_semantics,emo_sem_emo_sem,2.90068628021982,2,2,1,0,870381.886191904,91,A
29,1,9/8/92,23,f,38,Josh taught the rules,Sensible,edin_semantics,emo_sem_emo_sem,4.21936626674142,1,1,2,0,870386.84938941,90,A
29,1,9/8/92,23,f,39,Tom grated the carrots,Sensible,edin_semantics,emo_sem_emo_sem,4.85454821854364,1,1,2,0,870392.447708892,140,A
29,1,9/8/92,23,f,40,The potatoes mashed Will,Non-sensible,edin_semantics,emo_sem_emo_sem,1.81927877396811,2,1,2,0,870395.011693834,28,A
29,1,9/8/92,23,f,41,Ian filed the report,Sensible,edin_semantics,emo_sem_emo_sem,3.0076755117625,2,2,1,0,870398.763473839,99,A
29,1,9/8/92,23,f,42,The cheese grated Andy,Non-sensible,edin_semantics,emo_sem_emo_sem,1.33793355152011,1,2,1,0,870400.845222273,65,A
29,1,9/8/92,23,f,43,The bill paid Mike,Non-sensible,edin_semantics,emo_sem_emo_sem,2.60799822187983,1,2,1,0,870404.197176494,59,A
29,1,9/8/92,23,f,44,The table wiped Beth,Non-sensible,edin_semantics,emo_sem_emo_sem,1.63179128197953,2,1,2,0,870406.572895232,40,A
29,1,9/8/92,23,f,45,Josh scrubbed the pot,Sensible,edin_semantics,emo_sem_emo_sem,4.05446239339653,2,2,2,1,870411.371456346,131,A
29,1,9/8/92,23,f,46,Max searched the internet,Sensible,edin_semantics,emo_sem_emo_sem,2.6312056442257,1,2,1,0,870414.746925241,85,A
29,1,9/8/92,23,f,47,Lucy counted the shoes,Sensible,edin_semantics,emo_sem_emo_sem,1.40828385669738,2,2,1,0,870416.899222506,123,A
29,1,9/8/92,23,f,48,The pen described John,Non-sensible,edin_semantics,emo_sem_emo_sem,1.63162162026856,2,1,2,0,870419.275009237,42,A
29,1,9/8/92,23,f,49,John carried the kettle,Sensible,edin_semantics,emo_sem_emo_sem,1.36128177074716,1,2,1,0,870421.380223915,105,A
29,1,9/8/92,23,f,50,Joe entered the office,Sensible,edin_semantics,emo_sem_emo_sem,2.65573027043138,2,2,1,0,870424.77924597,133,A
29,1,9/8/92,23,f,51,The wall punched Jane,Non-sensible,edin_semantics,emo_sem_emo_sem,1.20832927082665,2,1,2,0,870426.731561709,50,A
29,1,9/8/92,23,f,52,The folder carried Dan,Non-sensible,edin_semantics,emo_sem_emo_sem,0.97358022921253,2,1,2,0,870428.44871211,30,A
29,1,9/8/92,23,f,53,Jack drank the beer,Sensible,edin_semantics,emo_sem_emo_sem,1.4322648596717,2,2,1,0,870430.624511541,135,A
29,1,9/8/92,23,f,54,Jack posted the gift,Sensible,edin_semantics,emo_sem_emo_sem,1.56186272588093,2,2,1,0,870432.929731158,111,A
29,1,9/8/92,23,f,55,The shelf dusted Jake,Non-sensible,edin_semantics,emo_sem_emo_sem,2.69065397721715,1,2,1,0,870436.363990265,47,A
29,1,9/8/92,23,f,56,The handle pulled Tim,Non-sensible,edin_semantics,emo_sem_emo_sem,1.3852948457934,1,2,1,0,870438.492768046,73,A
29,1,9/8/92,23,f,57,Sam sucked the candy,Sensible,edin_semantics,emo_sem_emo_sem,1.51464992586989,2,2,1,0,870440.750898983,87,A
29,1,9/8/92,23,f,58,Luke read the poster,Sensible,edin_semantics,emo_sem_emo_sem,1.51427820941899,2,2,1,0,870443.009046276,79,A
29,1,9/8/92,23,f,59,The flour weighed Jen,Non-sensible,edin_semantics,emo_sem_emo_sem,1.56174213462509,2,1,2,0,870445.31424216,64,A
29,1,9/8/92,23,f,60,The lesson taught Eve,Non-sensible,edin_semantics,emo_sem_emo_sem,3.87842049694154,1,2,1,0,870449.93641564,15,A
29,1,9/8/92,23,f,61,Lucy wiped the desk,Sensible,edin_semantics,emo_sem_emo_sem,1.13778204261325,2,2,1,0,870451.818218789,115,A
29,1,9/8/92,23,f,62,Jack cleaned the bath,Sensible,edin_semantics,emo_sem_emo_sem,3.36086162528954,1,1,2,0,870455.922838207,80,A
29,1,9/8/92,23,f,63,Alex dusted the house,Sensible,edin_semantics,emo_sem_emo_sem,1.25579383748118,1,1,2,0,870457.922229478,122,A
29,1,9/8/92,23,f,64,Josh crushed the ice,Sensible,edin_semantics,emo_sem_emo_sem,3.63168255740311,1,2,1,0,870462.297480282,81,A
29,1,9/8/92,23,f,65,The garlic crushed Erin,Non-sensible,edin_semantics,emo_sem_emo_sem,3.66669189673848,1,1,2,0,870466.707887637,6,A
29,1,9/8/92,23,f,66,The ball squeezed Josh,Non-sensible,edin_semantics,emo_sem_emo_sem,1.43195375963114,2,2,1,0,870468.883658203,1,A
29,1,9/8/92,23,f,67,The trolley pushed Matt,Non-sensible,edin_semantics,emo_sem_emo_sem,5.53674444381613,1,1,2,0,870475.164171666,26,A
29,1,9/8/92,23,f,68,Phil solved the problem,Sensible,edin_semantics,emo_sem_emo_sem,8.1590933582047,1,2,1,0,870484.067365348,109,A
29,1,9/8/92,23,f,69,The sofa sold Carl,Non-sensible,edin_semantics,emo_sem_emo_sem,3.36025834770408,1,1,2,0,870488.172006576,38,A
29,1,9/8/92,23,f,70,Jay painted the portrait,Sensible,edin_semantics,emo_sem_emo_sem,19.0499273886671,1,1,2,0,870507.966142052,110,A
29,1,9/8/92,23,f,71,Erin described the church,Sensible,edin_semantics,emo_sem_emo_sem,2.18453909724485,1,2,1,0,870510.8946689,117,A
29,1,9/8/92,23,f,72,Emma pulled the rope,Sensible,edin_semantics,emo_sem_emo_sem,1.16139389504679,2,1,2,0,870512.799966837,120,A
29,1,9/8/92,23,f,73,Eve typed the message,Sensible,edin_semantics,emo_sem_emo_sem,2.69069406739436,1,1,2,0,870516.234208305,124,A
29,1,9/8/92,23,f,74,Fred stored the rice,Sensible,edin_semantics,emo_sem_emo_sem,2.16117355925962,2,2,1,0,870519.139221442,127,A
29,1,9/8/92,23,f,75,The coins polished Jon,Non-sensible,edin_semantics,emo_sem_emo_sem,1.05539024132304,1,2,1,0,870520.938700782,29,A
29,1,9/8/92,23,f,76,Rob measured the curtains,Sensible,edin_semantics,emo_sem_emo_sem,2.12647724419367,1,1,2,0,870523.808425552,126,A
29,1,9/8/92,23,f,77,The papers filed Lara,Non-sensible,edin_semantics,emo_sem_emo_sem,1.07919131941162,2,1,2,0,870525.631402888,24,A
29,1,9/8/92,23,f,78,The jumper wore Joe,Non-sensible,edin_semantics,emo_sem_emo_sem,5.8428505359916,1,2,1,0,870532.217664197,25,A
29,1,9/8/92,23,f,79,The room searched Jen,Non-sensible,edin_semantics,emo_sem_emo_sem,2.17308291804511,1,1,2,0,870535.134466742,10,A
29,1,9/8/92,23,f,80,The letter typed Phil,Non-sensible,edin_semantics,emo_sem_emo_sem,3.4672802927671,2,2,1,0,870539.344959923,49,A
29,1,9/8/92,23,f,81,Liam mixed the nuts,Sensible,edin_semantics,emo_sem_emo_sem,1.53798114671372,2,2,1,0,870541.626617079,83,A
29,1,9/8/92,23,f,82,The tree hugged Amy,Non-sensible,edin_semantics,emo_sem_emo_sem,1.45593796984758,2,2,1,0,870543.825950427,11,A
29,1,9/8/92,23,f,83,The thread measured Amy,Non-sensible,edin_semantics,emo_sem_emo_sem,2.80823087343015,1,2,1,0,870547.377838066,51,A
29,1,9/8/92,23,f,84,Ian mailed the invite,Sensible,edin_semantics,emo_sem_emo_sem,5.50138327269815,2,2,1,0,870553.623096196,89,A
29,1,9/8/92,23,f,85,The dish served Kate,Non-sensible,edin_semantics,emo_sem_emo_sem,5.24285303766374,1,1,2,0,870559.609504652,70,A
29,1,9/8/92,23,f,86,Liz weighed the sugar,Sensible,edin_semantics,emo_sem_emo_sem,3.58446526713669,1,2,1,0,870563.937727392,139,A
29,1,9/8/92,23,f,87,Dan brushed the hair,Sensible,edin_semantics,emo_sem_emo_sem,1.98453287535813,1,2,1,0,870566.666197344,147,A
29,1,9/8/92,23,f,88,The house built Kate,Non-sensible,edin_semantics,emo_sem_emo_sem,1.39662915084045,2,1,2,0,870568.806795965,46,A
29,1,9/8/92,23,f,89,Rose built the shed,Sensible,edin_semantics,emo_sem_emo_sem,5.37192524108104,1,2,1,0,870574.922547313,121,A
29,1,9/8/92,23,f,90,The picture painted Ryan,Non-sensible,edin_semantics,emo_sem_emo_sem,1.56118921050802,2,2,1,0,870577.22774448,35,A
29,1,9/8/92,23,f,91,The bushes trimmed Jon,Non-sensible,edin_semantics,emo_sem_emo_sem,1.62018276005983,1,1,2,0,870579.591744046,32,A
29,1,9/8/92,23,f,92,The cake iced Mary,Non-sensible,edin_semantics,emo_sem_emo_sem,1.16157574416138,2,1,2,0,870581.497053209,44,A
29,1,9/8/92,23,f,93,The bucket lent Max,Non-sensible,edin_semantics,emo_sem_emo_sem,2.2554429678712,1,2,1,0,870584.496141397,19,A
29,1,9/8/92,23,f,94,The paper cut Jon,Non-sensible,edin_semantics,emo_sem_emo_sem,2.91385511332192,1,1,2,0,870588.153891252,20,A
29,1,9/8/92,23,f,95,Tim took the ticket,Sensible,edin_semantics,emo_sem_emo_sem,3.32559314265382,2,1,2,0,870592.223246037,128,A
29,1,9/8/92,23,f,96,The shirt ironed Josh,Non-sensible,edin_semantics,emo_sem_emo_sem,4.86582832154818,2,2,1,0,870597.833335685,55,A
29,1,9/8/92,23,f,97,The lolly sucked Leah,Non-sensible,edin_semantics,emo_sem_emo_sem,3.86640850710683,1,1,1,1,870602.443715266,12,A
29,1,9/8/92,23,f,98,The mirror kissed Max,Non-sensible,edin_semantics,emo_sem_emo_sem,3.11371989711188,1,2,1,0,870606.301413292,23,A
29,1,9/8/92,23,f,99,Sara jumped the hedge,Sensible,edin_semantics,emo_sem_emo_sem,1.36124200117774,2,1,2,0,870608.406655873,92,A
29,1,9/8/92,23,f,100,The towels passed Phil,Non-sensible,edin_semantics,emo_sem_emo_sem,6.04184071160853,2,2,1,0,870615.192868561,43,A
29,1,9/8/92,23,f,101,The plans cancelled Ian,Non-sensible,edin_semantics,emo_sem_emo_sem,1.73747613828164,2,2,1,0,870617.674504677,7,A
29,1,9/8/92,23,f,102,Phil cancelled the party,Sensible,edin_semantics,emo_sem_emo_sem,2.4431354010012,1,1,2,0,870620.861764778,82,A
29,1,9/8/92,23,f,103,The bowl scrubbed Liz,Non-sensible,edin_semantics,emo_sem_emo_sem,1.20837449259125,2,1,2,0,870622.814160055,56,A
29,1,9/8/92,23,f,104,Eve ironed the trousers,Sensible,edin_semantics,emo_sem_emo_sem,3.58421734930016,1,1,2,0,870627.142237829,130,A
29,1,9/8/92,23,f,105,Fred lent the car,Sensible,edin_semantics,emo_sem_emo_sem,0.914001041674055,2,1,2,0,870628.800551834,94,A
29,1,9/8/92,23,f,106,Hugh kissed the rose,Sensible,edin_semantics,emo_sem_emo_sem,1.04288498149253,2,1,2,0,870630.588295326,98,A
29,1,9/8/92,23,f,107,Tim sniffed the perfume,Sensible,edin_semantics,emo_sem_emo_sem,3.64266246487387,1,2,1,0,870634.975171009,93,A
29,1,9/8/92,23,f,108,Adam watched the opera,Sensible,edin_semantics,emo_sem_emo_sem,1.88988693919964,1,1,2,0,870637.609678483,108,A
29,1,9/8/92,23,f,109,The photo took Beth,Non-sensible,edin_semantics,emo_sem_emo_sem,1.73727183858864,2,2,2,1,870640.091279962,53,A
29,1,9/8/92,23,f,110,Ryan knitted the socks,Sensible,edin_semantics,emo_sem_emo_sem,1.51324420259334,1,2,1,0,870642.349446178,141,A
29,1,9/8/92,23,f,111,Ian pushed the button,Sensible,edin_semantics,emo_sem_emo_sem,1.30182734387927,1,2,1,0,870644.395873851,101,A
29,1,9/8/92,23,f,112,The number dialed Tom,Non-sensible,edin_semantics,emo_sem_emo_sem,1.71310834493488,2,2,1,0,870646.853997539,63,A
29,1,9/8/92,23,f,113,The ham ate Tim,Non-sensible,edin_semantics,emo_sem_emo_sem,4.11246330942959,2,2,1,0,870651.7113463,67,A
29,1,9/8/92,23,f,114,Fred served the dessert,Sensible,edin_semantics,emo_sem_emo_sem,3.17207905917894,1,2,1,0,870655.627813371,145,A
29,1,9/8/92,23,f,115,Zoe paid the debt,Sensible,edin_semantics,emo_sem_emo_sem,1.78408437804319,1,1,2,0,870658.156468572,134,A
29,1,9/8/92,23,f,116,Liam sliced the onion,Sensible,edin_semantics,emo_sem_emo_sem,6.79418647021521,1,1,2,0,870665.695397451,78,A
29,1,9/8/92,23,f,117,The money offered Matt,Non-sensible,edin_semantics,emo_sem_emo_sem,6.95884274633136,1,2,1,0,870673.398999605,9,A
29,1,9/8/92,23,f,118,Erin tidied the garage,Sensible,edin_semantics,emo_sem_emo_sem,2.84253398363944,1,2,1,0,870676.986411663,77,A
29,1,9/8/92,23,f,119,Ben climbed the stairs,Sensible,edin_semantics,emo_sem_emo_sem,1.19545325671788,1,2,1,0,870678.926759672,143,A
29,1,9/8/92,23,f,120,Leo passed the salt,Sensible,edin_semantics,emo_sem_emo_sem,4.83120865898672,1,1,2,0,870684.50152888,118,A
29,1,9/8/92,23,f,121,The gun carried Ryan,Non-sensible,edin_semantics,emo_sem_emo_sem,5.11330360022839,2,2,2,1,870690.358607272,75,A
29,1,9/8/92,23,f,122,The pill swallowed Luke,Non-sensible,edin_semantics,emo_sem_emo_sem,1.38387180375867,2,1,2,0,870692.487379922,22,A
29,1,9/8/92,23,f,123,Fred chopped the carrots,Sensible,edin_semantics,emo_sem_emo_sem,2.8071115546627,2,1,2,0,870696.039250242,102,A
29,1,9/8/92,23,f,124,The juice drank Matt,Non-sensible,edin_semantics,emo_sem_emo_sem,2.39556435472332,2,1,2,0,870699.17950954,60,A
29,1,9/8/92,23,f,125,Joe iced the donut,Sensible,edin_semantics,emo_sem_emo_sem,4.85316590801813,1,2,1,0,870704.777820362,119,A
29,1,9/8/92,23,f,126,Mike ate the steak,Sensible,edin_semantics,emo_sem_emo_sem,2.13665181933902,1,1,2,0,870707.659375914,142,A
29,1,9/8/92,23,f,127,The room tidied Sam,Non-sensible,edin_semantics,emo_sem_emo_sem,1.09024659649003,2,1,2,0,870709.494047405,2,A
29,1,9/8/92,23,f,128,Tom offered the sweets,Sensible,edin_semantics,emo_sem_emo_sem,4.88889590906911,1,1,2,0,870715.127705929,84,A
29,1,9/8/92,23,f,129,Ben got the radio,Sensible,edin_semantics,emo_sem_emo_sem,6.74755610059947,1,1,2,0,870722.619542279,88,A
29,1,9/8/92,23,f,130,Anna polished the trophy,Sensible,edin_semantics,emo_sem_emo_sem,1.12444354780018,2,1,2,0,870724.489588411,104,A
29,1,9/8/92,23,f,131,Erin punched the monitor,Sensible,edin_semantics,emo_sem_emo_sem,2.33524911093991,2,2,2,1,870727.571066156,125,A
29,1,9/8/92,23,f,132,Andy pulled the rope,Sensible,edin_semantics,emo_sem_emo_sem,1.03151411435101,2,1,2,0,870729.346987525,148,A
29,1,9/8/92,23,f,133,The parcel mailed Rob,Non-sensible,edin_semantics,emo_sem_emo_sem,5.62975213339087,1,1,2,0,870735.721520554,14,A
29,1,9/8/92,23,f,134,Kate wore the dress,Sensible,edin_semantics,emo_sem_emo_sem,1.51290167181287,1,1,2,0,870737.979670734,100,A
29,1,9/8/92,23,f,135,The sheets counted Bill,Non-sensible,edin_semantics,emo_sem_emo_sem,3.48918237781618,1,1,2,0,870742.213704567,48,A
29,1,9/8/92,23,f,136,Amy lifted the crate,Sensible,edin_semantics,emo_sem_emo_sem,1.3250902510481,2,1,2,0,870744.283668723,144,A
29,1,9/8/92,23,f,137,The lever pulled Hugh,Non-sensible,edin_semantics,emo_sem_emo_sem,3.18364332150668,1,2,1,0,870748.211916543,45,A
29,1,9/8/92,23,f,138,Ella mashed the turnip,Sensible,edin_semantics,emo_sem_emo_sem,2.74802371289115,2,2,1,0,870751.704992482,103,A
29,1,9/8/92,23,f,139,The story wrote Ewan,Non-sensible,edin_semantics,emo_sem_emo_sem,7.57012227189261,1,1,2,0,870760.020119834,74,A
29,1,9/8/92,23,f,140,The museum visited Mary,Non-sensible,edin_semantics,emo_sem_emo_sem,5.81784803431947,1,1,2,0,870766.582885392,16,A
29,1,9/8/92,23,f,141,The milk sniffed Phil,Non-sensible,edin_semantics,emo_sem_emo_sem,3.81850551383104,2,1,2,0,870771.146223438,18,A
29,1,9/8/92,23,f,142,The fruits mixed Jack,Non-sensible,edin_semantics,emo_sem_emo_sem,1.70181926176883,2,1,2,0,870773.592531739,8,A
29,1,9/8/92,23,f,143,Ian dented the bowl,Sensible,edin_semantics,emo_sem_emo_sem,11.1575718544191,1,1,2,0,870785.494867491,146,A
29,1,9/8/92,23,f,144,The fur stroked Rob,Non-sensible,edin_semantics,emo_sem_emo_sem,1.66641447250731,2,2,1,0,870787.905933929,41,A
29,1,9/8/92,23,f,145,The wine stored Leo,Non-sensible,edin_semantics,emo_sem_emo_sem,2.84303527174052,2,1,2,0,870791.493105446,52,A
29,1,9/8/92,23,f,146,The lorry dented Lily,Non-sensible,edin_semantics,emo_sem_emo_sem,5.07725544332061,2,2,1,0,870797.314869171,71,A
29,1,9/8/92,23,f,147,Jay squeezed the lemon,Sensible,edin_semantics,emo_sem_emo_sem,10.3579379263101,1,1,2,0,870808.417516793,76,A
29,1,9/8/92,23,f,148,Max kicked the door,Sensible,edin_semantics,emo_sem_emo_sem,8.92284622555599,1,1,2,0,870818.085109597,114,A
29,1,9/8/92,23,f,149,Owen swallowed the gum,Sensible,edin_semantics,emo_sem_emo_sem,3.83036644372623,1,2,1,0,870822.660223261,97,A
29,1,9/8/92,23,f,150,The spoon licked Will,Non-sensible,edin_semantics,emo_sem_emo_sem,4.39478981180582,1,2,1,0,870827.799868376,21,A
29,1,9/8/92,23,f,151,The problem solved Phil,Non-sensible,edin_semantics,emo_sem_emo_sem,1.82555690116715,2,1,2,0,870855.850312126,109,B
29,1,9/8/92,23,f,152,The trophy polished Anna,Non-sensible,edin_semantics,emo_sem_emo_sem,3.98327468405478,2,2,1,0,870860.578298751,104,B
29,1,9/8/92,23,f,153,The pan washed Beth,Non-sensible,edin_semantics,emo_sem_emo_sem,3.60683400218841,1,2,1,0,870864.929934496,132,B
29,1,9/8/92,23,f,154,Matt drank the juice,Sensible,edin_semantics,emo_sem_emo_sem,2.05438509944361,1,2,1,0,870867.729100812,60,B
29,1,9/8/92,23,f,155,Kate lifted the box,Sensible,edin_semantics,emo_sem_emo_sem,1.25449619756546,2,1,2,0,870869.728497855,69,B
29,1,9/8/92,23,f,156,The desk wiped Lucy,Non-sensible,edin_semantics,emo_sem_emo_sem,1.76019413932227,1,1,2,0,870872.233614328,115,B
29,1,9/8/92,23,f,157,The donut iced Joe,Non-sensible,edin_semantics,emo_sem_emo_sem,1.26652229914907,2,1,2,0,870874.244772557,119,B
29,1,9/8/92,23,f,158,Eve taught the lesson,Sensible,edin_semantics,emo_sem_emo_sem,1.06638233619742,2,1,2,0,870876.056002499,15,B
29,1,9/8/92,23,f,159,The rules taught Josh,Non-sensible,edin_semantics,emo_sem_emo_sem,1.66640132293105,1,2,1,0,870878.467046166,90,B
29,1,9/8/92,23,f,160,The fat chewed Adam,Non-sensible,edin_semantics,emo_sem_emo_sem,1.64216406329069,2,2,1,0,870880.854573876,106,B
29,1,9/8/92,23,f,161,Jeff watered the garden,Sensible,edin_semantics,emo_sem_emo_sem,1.34906419820618,2,2,1,0,870882.948080609,54,B
29,1,9/8/92,23,f,162,The wallet carried Leo,Non-sensible,edin_semantics,emo_sem_emo_sem,3.24223147903103,1,2,1,0,870886.935154242,150,B
29,1,9/8/92,23,f,163,Ian cancelled the plans,Sensible,edin_semantics,emo_sem_emo_sem,1.25476881104987,2,1,2,0,870888.934529155,7,B
29,1,9/8/92,23,f,164,Joe solved the puzzle,Sensible,edin_semantics,emo_sem_emo_sem,1.60774453100748,2,2,1,0,870891.286812757,34,B
29,1,9/8/92,23,f,165,The hotline dialed Hugh,Non-sensible,edin_semantics,emo_sem_emo_sem,10.3457780836616,1,2,1,0,870902.377570584,138,B
29,1,9/8/92,23,f,166,The hair trimmed Bill,Non-sensible,edin_semantics,emo_sem_emo_sem,1.30129943601787,2,1,2,0,870904.424025198,107,B
29,1,9/8/92,23,f,167,The report wrote Alex,Non-sensible,edin_semantics,emo_sem_emo_sem,2.71334279247094,1,1,2,0,870907.881797055,149,B
29,1,9/8/92,23,f,168,The salt passed Leo,Non-sensible,edin_semantics,emo_sem_emo_sem,2.58334915561136,1,2,1,0,870911.210207096,118,B
29,1,9/8/92,23,f,169,Leah sucked the lolly,Sensible,edin_semantics,emo_sem_emo_sem,2.17144338879734,1,2,1,0,870914.127056147,12,B
29,1,9/8/92,23,f,170,The rope pulled Andy,Non-sensible,edin_semantics,emo_sem_emo_sem,1.7130012238631,2,2,1,0,870916.585077846,148,B
29,1,9/8/92,23,f,171,The rope pulled Emma,Non-sensible,edin_semantics,emo_sem_emo_sem,1.98386064264923,2,2,1,0,870919.313665823,120,B
29,1,9/8/92,23,f,172,The door kicked Max,Non-sensible,edin_semantics,emo_sem_emo_sem,4.65342203632463,1,2,1,0,870924.712046435,114,B
29,1,9/8/92,23,f,173,Tim cleaned the floor,Sensible,edin_semantics,emo_sem_emo_sem,1.85455174650997,2,1,2,0,870927.311304349,5,B
29,1,9/8/92,23,f,174,The carrots grated Tom,Non-sensible,edin_semantics,emo_sem_emo_sem,6.02995668980293,2,2,1,0,870934.085732118,140,B
29,1,9/8/92,23,f,175,Bill counted the sheets,Sensible,edin_semantics,emo_sem_emo_sem,2.32502899318933,2,2,1,0,870937.155389023,48,B
29,1,9/8/92,23,f,176,The onion sliced Liam,Non-sensible,edin_semantics,emo_sem_emo_sem,6.35867879330181,2,2,2,1,870944.259187715,78,B
29,1,9/8/92,23,f,177,The turnip mashed Ella,Non-sensible,edin_semantics,emo_sem_emo_sem,5.38279963110108,1,1,2,0,870950.386724623,103,B
29,1,9/8/92,23,f,178,The garage tidied Erin,Non-sensible,edin_semantics,emo_sem_emo_sem,1.24276900850236,2,1,2,0,870952.374361443,77,B
29,1,9/8/92,23,f,179,The cream whisked Tom,Non-sensible,edin_semantics,emo_sem_emo_sem,1.12517832126468,2,1,2,0,870954.244409179,137,B
29,1,9/8/92,23,f,180,The stairs climbed Ben,Non-sensible,edin_semantics,emo_sem_emo_sem,0.913107511005364,2,1,2,0,870955.902731523,143,B
29,1,9/8/92,23,f,181,Mike paid the bill,Sensible,edin_semantics,emo_sem_emo_sem,2.66604596329853,1,1,2,0,870959.313484936,59,B
29,1,9/8/92,23,f,182,John described the pen,Sensible,edin_semantics,emo_sem_emo_sem,3.63055040966719,1,2,1,0,870963.688622847,42,B
29,1,9/8/92,23,f,183,The debt paid Zoe,Non-sensible,edin_semantics,emo_sem_emo_sem,2.41855849709827,2,2,1,0,870966.852392969,134,B
29,1,9/8/92,23,f,184,The kettle carried John,Non-sensible,edin_semantics,emo_sem_emo_sem,3.60691418254282,1,1,2,0,870971.204051485,105,B
29,1,9/8/92,23,f,185,The gum swallowed Owen,Non-sensible,edin_semantics,emo_sem_emo_sem,1.2426705469843,2,1,2,0,870973.191679324,97,B
29,1,9/8/92,23,f,186,Hugh pulled the lever,Sensible,edin_semantics,emo_sem_emo_sem,2.99574562662747,1,1,2,0,870976.931769986,45,B
29,1,9/8/92,23,f,187,The pillow hugged Kate,Non-sensible,edin_semantics,emo_sem_emo_sem,2.23112456582021,2,2,1,0,870979.907330672,86,B
29,1,9/8/92,23,f,188,The rose kissed Hugh,Non-sensible,edin_semantics,emo_sem_emo_sem,1.24313206551597,1,2,1,0,870981.894992187,98,B
29,1,9/8/92,23,f,189,Liz sliced the tomato,Sensible,edin_semantics,emo_sem_emo_sem,1.4314957690658,2,1,2,0,870984.070759546,3,B
29,1,9/8/92,23,f,190,Luke swallowed the pill,Sensible,edin_semantics,emo_sem_emo_sem,1.56047464243602,2,2,1,0,870986.375953826,22,B
29,1,9/8/92,23,f,191,Matt offered the money,Sensible,edin_semantics,emo_sem_emo_sem,1.05448548542336,2,1,2,0,870988.175429639,9,B
29,1,9/8/92,23,f,192,Josh ironed the shirt,Sensible,edin_semantics,emo_sem_emo_sem,2.08956634579226,1,1,2,0,870991.009869248,55,B
29,1,9/8/92,23,f,193,The shed built Rose,Non-sensible,edin_semantics,emo_sem_emo_sem,1.10203664691653,2,1,2,0,870992.856430214,121,B
29,1,9/8/92,23,f,194,The box labeled Ian,Non-sensible,edin_semantics,emo_sem_emo_sem,2.16014596691821,2,2,1,0,870995.761410957,136,B
29,1,9/8/92,23,f,195,The trousers ironed Eve,Non-sensible,edin_semantics,emo_sem_emo_sem,2.30083952110726,1,2,1,0,870998.807556075,130,B
29,1,9/8/92,23,f,196,Jen fixed the laptop,Sensible,edin_semantics,emo_sem_emo_sem,1.03109300672077,2,1,2,0,871000.583478727,37,B
29,1,9/8/92,23,f,197,The dress wore Kate,Non-sensible,edin_semantics,emo_sem_emo_sem,2.07808482961264,2,2,1,0,871003.406162924,100,B
29,1,9/8/92,23,f,198,Carl brushed the teeth,Sensible,edin_semantics,emo_sem_emo_sem,2.70064830686897,1,2,1,0,871006.852186424,72,B
29,1,9/8/92,23,f,199,Beth took the photo,Sensible,edin_semantics,emo_sem_emo_sem,2.99531618028414,1,1,2,0,871010.592235392,53,B
29,1,9/8/92,23,f,200,Jane punched the wall,Sensible,edin_semantics,emo_sem_emo_sem,1.01956530660391,2,2,1,0,871012.356455871,50,B
29,1,9/8/92,23,f,201,Tim ate the ham,Sensible,edin_semantics,emo_sem_emo_sem,1.00754561950453,2,1,2,0,871014.108834985,67,B
29,1,9/8/92,23,f,202,The blanket stroked Ryan,Non-sensible,edin_semantics,emo_sem_emo_sem,5.85276115720626,1,2,1,0,871020.706869025,116,B
29,1,9/8/92,23,f,203,Phil typed the letter,Sensible,edin_semantics,emo_sem_emo_sem,1.38399399863556,2,1,2,0,871022.835675991,49,B
29,1,9/8/92,23,f,204,Jen searched the room,Sensible,edin_semantics,emo_sem_emo_sem,1.93662667484023,2,2,1,0,871025.517191004,10,B
29,1,9/8/92,23,f,205,Ryan carried the gun,Sensible,edin_semantics,emo_sem_emo_sem,1.25472166494001,2,1,2,0,871027.516615629,75,B
29,1,9/8/92,23,f,206,The report filed Ian,Non-sensible,edin_semantics,emo_sem_emo_sem,3.50134286179673,1,1,2,0,871031.762386272,99,B
29,1,9/8/92,23,f,207,The beer drank Jack,Non-sensible,edin_semantics,emo_sem_emo_sem,1.66575506865047,1,1,2,0,871034.173418072,135,B
29,1,9/8/92,23,f,208,Liz scrubbed the bowl,Sensible,edin_semantics,emo_sem_emo_sem,3.88908096554223,2,2,1,0,871038.807364925,56,B
29,1,9/8/92,23,f,209,The bath cleaned Jack,Non-sensible,edin_semantics,emo_sem_emo_sem,1.7250693399692,1,2,1,0,871041.277180843,80,B
29,1,9/8/92,23,f,210,The monitor punched Erin,Non-sensible,edin_semantics,emo_sem_emo_sem,1.37228733592201,2,1,2,0,871043.394188138,125,B
29,1,9/8/92,23,f,211,Tom knitted the scarf,Sensible,edin_semantics,emo_sem_emo_sem,1.77174493123312,2,2,1,0,871045.911130903,66,B
29,1,9/8/92,23,f,212,The sweets offered Tom,Non-sensible,edin_semantics,emo_sem_emo_sem,3.21885182918049,2,2,1,0,871049.874630529,84,B
29,1,9/8/92,23,f,213,Leo stored the wine,Sensible,edin_semantics,emo_sem_emo_sem,2.806876144954,2,2,1,0,871053.426519451,52,B
29,1,9/8/92,23,f,214,The bowl dented Ian,Non-sensible,edin_semantics,emo_sem_emo_sem,4.31261193181854,1,2,1,0,871058.483830815,146,B
29,1,9/8/92,23,f,215,Jen weighed the flour,Sensible,edin_semantics,emo_sem_emo_sem,1.66617617628071,1,2,1,0,871060.89485556,64,B
29,1,9/8/92,23,f,216,Josh squeezed the ball,Sensible,edin_semantics,emo_sem_emo_sem,2.80690276494715,1,1,2,0,871064.446741275,1,B
29,1,9/8/92,23,f,217,The hospital visited Tom,Non-sensible,edin_semantics,emo_sem_emo_sem,1.11330424167681,2,1,2,0,871066.305015318,91,B
29,1,9/8/92,23,f,218,The portrait painted Jay,Non-sensible,edin_semantics,emo_sem_emo_sem,1.34851512266323,1,2,1,0,871068.39850409,110,B
29,1,9/8/92,23,f,219,The plants watered Luke,Non-sensible,edin_semantics,emo_sem_emo_sem,2.14805892808363,2,1,2,0,871071.291739684,129,B
29,1,9/8/92,23,f,220,The car lent Fred,Non-sensible,edin_semantics,emo_sem_emo_sem,4.1595526317833,1,2,1,0,871076.196145053,94,B
29,1,9/8/92,23,f,221,Jack mixed the fruits,Sensible,edin_semantics,emo_sem_emo_sem,1.47811427188572,2,2,1,0,871078.419016488,8,B
29,1,9/8/92,23,f,222,Dan carried the folder,Sensible,edin_semantics,emo_sem_emo_sem,1.00752894196194,1,2,1,0,871080.171442747,30,B
29,1,9/8/92,23,f,223,Tom dialed the number,Sensible,edin_semantics,emo_sem_emo_sem,2.26599471189547,1,1,2,0,871083.182306233,63,B
29,1,9/8/92,23,f,224,The bed sold Jay,Non-sensible,edin_semantics,emo_sem_emo_sem,2.66599849646445,2,1,2,0,871086.59305676,113,B
29,1,9/8/92,23,f,225,Erin posted the card,Sensible,edin_semantics,emo_sem_emo_sem,1.92524458246771,1,2,1,0,871089.262839452,36,B
29,1,9/8/92,23,f,226,Lily dented the lorry,Sensible,edin_semantics,emo_sem_emo_sem,1.46581042534672,2,1,2,0,871091.473937513,71,B
29,1,9/8/92,23,f,227,Kate served the dish,Sensible,edin_semantics,emo_sem_emo_sem,1.47791606595274,2,2,1,0,871093.69680125,70,B
29,1,9/8/92,23,f,228,Jon cut the paper,Sensible,edin_semantics,emo_sem_emo_sem,5.82974488509353,2,2,1,0,871100.27130458,20,B
29,1,9/8/92,23,f,229,Mary visited the museum,Sensible,edin_semantics,emo_sem_emo_sem,2.24248933920171,2,2,1,0,871103.258716895,16,B
29,1,9/8/92,23,f,230,The ribbon cut Lucy,Non-sensible,edin_semantics,emo_sem_emo_sem,1.54873943538405,1,1,2,0,871105.552076865,95,B
29,1,9/8/92,23,f,231,The rice stored Fred,Non-sensible,edin_semantics,emo_sem_emo_sem,1.14869812643155,2,1,2,0,871107.44567231,127,B
29,1,9/8/92,23,f,232,Ryan entered the room,Sensible,edin_semantics,emo_sem_emo_sem,3.94756745418999,1,2,1,0,871112.138407129,58,B
29,1,9/8/92,23,f,233,The message typed Eve,Non-sensible,edin_semantics,emo_sem_emo_sem,2.03080628160387,2,2,1,0,871114.913993344,124,B
29,1,9/8/92,23,f,234,The ice crushed Josh,Non-sensible,edin_semantics,emo_sem_emo_sem,2.14868978771847,1,1,2,0,871117.8072562,81,B
29,1,9/8/92,23,f,235,Max kissed the mirror,Sensible,edin_semantics,emo_sem_emo_sem,2.58368559274822,1,1,2,0,871121.135682919,23,B
29,1,9/8/92,23,f,236,Ewan wrote the story,Sensible,edin_semantics,emo_sem_emo_sem,1.30174908787012,1,2,1,0,871123.18210931,74,B
29,1,9/8/92,23,f,237,Jon jumped the fence,Sensible,edin_semantics,emo_sem_emo_sem,1.28962901479099,2,1,2,0,871125.216803059,17,B
29,1,9/8/92,23,f,238,Lily got the kettle,Sensible,edin_semantics,emo_sem_emo_sem,3.66536763682961,1,1,2,0,871129.627269106,13,B
29,1,9/8/92,23,f,239,Beth wiped the table,Sensible,edin_semantics,emo_sem_emo_sem,6.66492792742793,2,2,2,1,871137.036802815,40,B
29,1,9/8/92,23,f,240,The house dusted Alex,Non-sensible,edin_semantics,emo_sem_emo_sem,2.08983126201201,2,2,2,1,871139.871260064,122,B
29,1,9/8/92,23,f,241,The carrots chopped Fred,Non-sensible,edin_semantics,emo_sem_emo_sem,2.53614309069235,2,2,1,0,871143.152635306,102,B
29,1,9/8/92,23,f,242,Joe wore the jumper,Sensible,edin_semantics,emo_sem_emo_sem,8.12297881185077,1,1,2,0,871152.020547998,25,B
29,1,9/8/92,23,f,243,Ben chewed the toffee,Sensible,edin_semantics,emo_sem_emo_sem,1.53672776627354,1,1,2,0,871154.30219874,31,B
29,1,9/8/92,23,f,244,The dessert served Fred,Non-sensible,edin_semantics,emo_sem_emo_sem,1.25408407009672,1,1,2,0,871156.301631704,145,B
29,1,9/8/92,23,f,245,The radio fixed Luke,Non-sensible,edin_semantics,emo_sem_emo_sem,4.01864740112796,1,2,1,0,871161.064949352,112,B
29,1,9/8/92,23,f,246,The poster read Luke,Non-sensible,edin_semantics,emo_sem_emo_sem,3.93640601821244,2,1,2,0,871165.745859804,79,B
29,1,9/8/92,23,f,247,Carl sold the sofa,Sensible,edin_semantics,emo_sem_emo_sem,4.00634098867886,1,2,1,0,871170.497376817,38,B
29,1,9/8/92,23,f,248,Jon trimmed the bushes,Sensible,edin_semantics,emo_sem_emo_sem,1.66620953136589,1,2,1,0,871172.908419522,32,B
29,1,9/8/92,23,f,249,The opera watched Adam,Non-sensible,edin_semantics,emo_sem_emo_sem,1.21917511662468,1,2,1,0,871174.872591059,108,B
29,1,9/8/92,23,f,250,The candy sucked Sam,Non-sensible,edin_semantics,emo_sem_emo_sem,2.47746769688092,1,1,2,0,871178.095091418,87,B
29,1,9/8/92,23,f,251,Sean read the book,Sensible,edin_semantics,emo_sem_emo_sem,2.63052571425214,1,2,1,0,871181.4705632,4,B
29,1,9/8/92,23,f,252,The plate licked Jane,Non-sensible,edin_semantics,emo_sem_emo_sem,3.95963557029609,2,2,1,0,871186.175046376,96,B
29,1,9/8/92,23,f,253,Will licked the spoon,Sensible,edin_semantics,emo_sem_emo_sem,1.48971124773379,1,1,2,0,871188.409700164,21,B
29,1,9/8/92,23,f,254,Sam tidied the room,Sensible,edin_semantics,emo_sem_emo_sem,3.01920866407454,2,2,1,0,871192.173234299,2,B
29,1,9/8/92,23,f,255,Erin crushed the garlic,Sensible,edin_semantics,emo_sem_emo_sem,4.67726224265061,2,2,1,0,871197.595144658,6,B
29,1,9/8/92,23,f,256,Matt pushed the trolley,Sensible,edin_semantics,emo_sem_emo_sem,2.25424218596891,2,2,1,0,871200.594240544,26,B
29,1,9/8/92,23,f,257,Ella watched the movie,Sensible,edin_semantics,emo_sem_emo_sem,4.32431442535017,1,1,2,0,871205.663336506,33,B
29,1,9/8/92,23,f,258,The ticket took Tim,Non-sensible,edin_semantics,emo_sem_emo_sem,6.57074639631901,2,2,1,0,871212.978807351,128,B
29,1,9/8/92,23,f,259,Mark washed the dishes,Sensible,edin_semantics,emo_sem_emo_sem,3.12483097973745,2,1,2,0,871216.848209154,57,B
29,1,9/8/92,23,f,260,Phil passed the towels,Sensible,edin_semantics,emo_sem_emo_sem,2.11333086166997,2,1,2,0,871219.706197434,43,B
29,1,9/8/92,23,f,261,Mary iced the cake,Sensible,edin_semantics,emo_sem_emo_sem,2.79556429060176,2,2,2,1,871223.246291495,44,B
29,1,9/8/92,23,f,262,The gift posted Jack,Non-sensible,edin_semantics,emo_sem_emo_sem,2.84205482550897,1,1,2,0,871226.833514969,111,B
29,1,9/8/92,23,f,263,The perfume sniffed Tim,Non-sensible,edin_semantics,emo_sem_emo_sem,1.20721893222071,2,1,2,0,871228.785815954,93,B
29,1,9/8/92,23,f,264,The office entered Joe,Non-sensible,edin_semantics,emo_sem_emo_sem,1.85386155336164,1,1,2,0,871231.385046287,133,B
29,1,9/8/92,23,f,265,Will mashed the potatoes,Sensible,edin_semantics,emo_sem_emo_sem,2.66568643425126,1,2,1,0,871234.795845564,28,B
29,1,9/8/92,23,f,266,Jake dusted the shelf,Sensible,edin_semantics,emo_sem_emo_sem,5.39420321176294,1,1,2,0,871240.935176692,47,B
29,1,9/8/92,23,f,267,The church described Erin,Non-sensible,edin_semantics,emo_sem_emo_sem,1.23141353589017,2,1,2,0,871242.91100935,117,B
29,1,9/8/92,23,f,268,The sugar weighed Liz,Non-sensible,edin_semantics,emo_sem_emo_sem,2.19531727069989,2,1,2,0,871245.851312137,139,B
29,1,9/8/92,23,f,269,Rob mailed the parcel,Sensible,edin_semantics,emo_sem_emo_sem,2.75967168365605,1,2,1,0,871249.356132905,14,B
29,1,9/8/92,23,f,270,Liz labeled the jar,Sensible,edin_semantics,emo_sem_emo_sem,1.91325536370277,1,1,2,0,871252.014157618,61,B
29,1,9/8/92,23,f,271,The party cancelled Phil,Non-sensible,edin_semantics,emo_sem_emo_sem,1.41896453069057,2,2,1,0,871254.178219918,82,B
29,1,9/8/92,23,f,272,The socks knitted Ryan,Non-sensible,edin_semantics,emo_sem_emo_sem,1.3722956746351,1,1,2,0,871256.29523523,141,B
29,1,9/8/92,23,f,273,The hedge jumped Sara,Non-sensible,edin_semantics,emo_sem_emo_sem,2.11349603324197,1,2,1,0,871259.153246281,92,B
29,1,9/8/92,23,f,274,The hair brushed Dan,Non-sensible,edin_semantics,emo_sem_emo_sem,1.1720610987395,2,1,2,0,871261.070279426,147,B
29,1,9/8/92,23,f,275,The invite mailed Ian,Non-sensible,edin_semantics,emo_sem_emo_sem,1.07757391990162,1,1,2,0,871262.893259969,89,B
29,1,9/8/92,23,f,276,The button pushed Ian,Non-sensible,edin_semantics,emo_sem_emo_sem,2.39535716851242,2,1,2,0,871266.033535303,101,B
29,1,9/8/92,23,f,277,Amy hugged the tree,Sensible,edin_semantics,emo_sem_emo_sem,2.5238498278195,1,1,2,0,871269.30311857,11,B
29,1,9/8/92,23,f,278,Max lent the bucket,Sensible,edin_semantics,emo_sem_emo_sem,2.28946416382678,1,1,2,0,871272.337532008,19,B
29,1,9/8/92,23,f,279,Rob stroked the fur,Sensible,edin_semantics,emo_sem_emo_sem,1.03172033827286,2,1,2,0,871274.113454339,41,B
29,1,9/8/92,23,f,280,Phil chopped the herbs,Sensible,edin_semantics,emo_sem_emo_sem,1.47806327708531,2,1,2,0,871276.336340848,27,B
29,1,9/8/92,23,f,281,The lemon squeezed Jay,Non-sensible,edin_semantics,emo_sem_emo_sem,1.4423836292699,1,2,1,0,871278.523892484,76,B
29,1,9/8/92,23,f,282,The nuts mixed Liam,Non-sensible,edin_semantics,emo_sem_emo_sem,1.33610447566025,2,1,2,0,871280.605663047,83,B
29,1,9/8/92,23,f,283,The crate lifted Amy,Non-sensible,edin_semantics,emo_sem_emo_sem,2.81988269276917,2,2,1,0,871284.169278838,144,B
29,1,9/8/92,23,f,284,Matt kicked the bike,Sensible,edin_semantics,emo_sem_emo_sem,2.85476374346763,2,1,2,0,871287.768194863,39,B
29,1,9/8/92,23,f,285,The internet searched Max,Non-sensible,edin_semantics,emo_sem_emo_sem,3.13638786552474,1,1,2,0,871291.649392489,85,B
29,1,9/8/92,23,f,286,Lara filed the papers,Sensible,edin_semantics,emo_sem_emo_sem,2.32491738209501,1,2,1,0,871294.719037206,24,B
29,1,9/8/92,23,f,287,The steak ate Mike,Non-sensible,edin_semantics,emo_sem_emo_sem,1.39621541975066,1,2,1,0,871296.859588039,142,B
29,1,9/8/92,23,f,288,Ryan painted the picture,Sensible,edin_semantics,emo_sem_emo_sem,1.31360616907477,2,1,2,0,871298.917868304,35,B
29,1,9/8/92,23,f,289,The radio got Ben,Non-sensible,edin_semantics,emo_sem_emo_sem,3.3246447686106,2,2,1,0,871302.987144833,88,B
29,1,9/8/92,23,f,290,Tim pulled the handle,Sensible,edin_semantics,emo_sem_emo_sem,1.78396506956778,2,1,2,0,871305.515811901,73,B
29,1,9/8/92,23,f,291,The shoes counted Lucy,Non-sensible,edin_semantics,emo_sem_emo_sem,1.87840189505368,1,1,2,0,871308.138531249,123,B
29,1,9/8/92,23,f,292,Jon polished the coins,Sensible,edin_semantics,emo_sem_emo_sem,5.4766864188714,1,1,2,0,871314.36024616,29,B
29,1,9/8/92,23,f,293,The pot scrubbed Josh,Non-sensible,edin_semantics,emo_sem_emo_sem,1.23062488134019,2,1,2,0,871316.336114418,131,B
29,1,9/8/92,23,f,294,Kate built the house,Sensible,edin_semantics,emo_sem_emo_sem,1.92517017491627,2,2,1,0,871319.005913146,46,B
29,1,9/8/92,23,f,295,Luke climbed the hill,Sensible,edin_semantics,emo_sem_emo_sem,2.63073386263568,2,2,1,0,871322.381356704,68,B
29,1,9/8/92,23,f,296,Phil sniffed the milk,Sensible,edin_semantics,emo_sem_emo_sem,2.90131649840623,1,2,1,0,871326.027335111,18,B
29,1,9/8/92,23,f,297,Amy measured the thread,Sensible,edin_semantics,emo_sem_emo_sem,4.5008428565925,1,1,2,0,871331.272813576,51,B
29,1,9/8/92,23,f,298,Dan whisked the eggs,Sensible,edin_semantics,emo_sem_emo_sem,2.07735390495509,1,2,1,0,871334.095504508,62,B
29,1,9/8/92,23,f,299,Andy grated the cheese,Sensible,edin_semantics,emo_sem_emo_sem,1.2781430084724,1,1,2,0,871336.118452787,65,B
29,1,9/8/92,23,f,300,The curtains measured Rob,Non-sensible,edin_semantics,emo_sem_emo_sem,2.47769027773757,2,2,1,0,871339.34107919,126,B
