subject_column,AssignedList_column,subject_dob_column,subject_age_column,subject_gender_column,trialnum_column,Stim_column,Type_column,Experiment_column,OrderGroup_column,ReactionTime_column,StimSide_column,StimPosition_column,Response_column,Valid_column,TrialEndSecs_column,PairID_column,List_column
3,3,23/12/93,22,f,1,The shoes counted Lucy,Non-sensible,edin_semantics,emo_sem_emo_sem,0.849280685368285,1,2,2,1,20273.7617618269,123,B
3,3,23/12/93,22,f,2,Phil sniffed the milk,Sensible,edin_semantics,emo_sem_emo_sem,0.667037634764711,2,1,1,1,20275.1730928605,18,B
3,3,23/12/93,22,f,3,Josh squeezed the ball,Sensible,edin_semantics,emo_sem_emo_sem,0.585087146500882,1,2,2,1,20276.5021016893,1,B
3,3,23/12/93,22,f,4,The blanket stroked Ryan,Non-sensible,edin_semantics,emo_sem_emo_sem,0.608783669365948,2,1,1,1,20277.8546838839,116,B
3,3,23/12/93,22,f,5,Jack mixed the fruits,Sensible,edin_semantics,emo_sem_emo_sem,0.632104627118679,2,1,2,0,20279.2306720274,8,B
3,3,23/12/93,22,f,6,The beer drank Jack,Non-sensible,edin_semantics,emo_sem_emo_sem,0.642485426404164,2,2,2,1,20280.6185833209,135,B
3,3,23/12/93,22,f,7,Hugh pulled the lever,Sensible,edin_semantics,emo_sem_emo_sem,0.703305165414349,1,2,2,1,20282.0651664802,45,B
3,3,23/12/93,22,f,8,The lemon squeezed Jay,Non-sensible,edin_semantics,emo_sem_emo_sem,0.679866182075784,2,1,1,1,20283.4882429839,76,B
3,3,23/12/93,22,f,9,The report wrote Alex,Non-sensible,edin_semantics,emo_sem_emo_sem,0.809590092008875,1,2,2,1,20285.0407255623,149,B
3,3,23/12/93,22,f,10,The salt passed Leo,Non-sensible,edin_semantics,emo_sem_emo_sem,1.0210120822303,2,1,2,0,20286.8048921605,118,B
3,3,23/12/93,22,f,11,Liz sliced the tomato,Sensible,edin_semantics,emo_sem_emo_sem,5.8316041088292,1,2,2,1,20293.3794079991,3,B
3,3,23/12/93,22,f,12,John described the pen,Sensible,edin_semantics,emo_sem_emo_sem,0.762150541635492,2,1,1,1,20294.8848163291,42,B
3,3,23/12/93,22,f,13,Jen searched the room,Sensible,edin_semantics,emo_sem_emo_sem,1.53872746609341,1,1,1,1,20297.1664956151,10,B
3,3,23/12/93,22,f,14,Dan carried the folder,Sensible,edin_semantics,emo_sem_emo_sem,0.891646739160933,1,1,1,1,20298.8013064919,30,B
3,3,23/12/93,22,f,15,The ice crushed Josh,Non-sensible,edin_semantics,emo_sem_emo_sem,0.774297234609548,1,2,2,1,20300.3184756867,81,B
3,3,23/12/93,22,f,16,The rules taught Josh,Non-sensible,edin_semantics,emo_sem_emo_sem,1.17440878161506,2,1,1,1,20302.2355970299,90,B
3,3,23/12/93,22,f,17,Amy hugged the tree,Sensible,edin_semantics,emo_sem_emo_sem,0.585896968794259,1,2,2,1,20303.5646048965,11,B
3,3,23/12/93,22,f,18,The carrots chopped Fred,Non-sensible,edin_semantics,emo_sem_emo_sem,0.750595580197114,2,1,1,1,20305.0582331185,102,B
3,3,23/12/93,22,f,19,The garage tidied Erin,Non-sensible,edin_semantics,emo_sem_emo_sem,1.56225047851694,2,2,2,1,20307.3633885915,77,B
3,3,23/12/93,22,f,20,Amy measured the thread,Sensible,edin_semantics,emo_sem_emo_sem,0.868183701692033,2,2,2,1,20308.9747008308,51,B
3,3,23/12/93,22,f,21,Luke climbed the hill,Sensible,edin_semantics,emo_sem_emo_sem,0.938825542791164,2,1,1,1,20310.6565465072,68,B
3,3,23/12/93,22,f,22,The turnip mashed Ella,Non-sensible,edin_semantics,emo_sem_emo_sem,0.680038730355591,1,2,2,1,20312.0796480272,103,B
3,3,23/12/93,22,f,23,Matt offered the money,Sensible,edin_semantics,emo_sem_emo_sem,0.762450416423235,2,2,2,1,20313.5850794492,9,B
3,3,23/12/93,22,f,24,The trophy polished Anna,Non-sensible,edin_semantics,emo_sem_emo_sem,1.25639775648597,2,1,1,1,20315.5844819447,104,B
3,3,23/12/93,22,f,25,The steak ate Mike,Non-sensible,edin_semantics,emo_sem_emo_sem,0.821112339832325,1,1,1,1,20317.1487112761,142,B
3,3,23/12/93,22,f,26,The poster read Luke,Non-sensible,edin_semantics,emo_sem_emo_sem,0.761809614465164,1,2,2,1,20318.6541670729,79,B
3,3,23/12/93,22,f,27,The bed sold Jay,Non-sensible,edin_semantics,emo_sem_emo_sem,0.855606279474159,1,2,2,1,20320.2537501988,113,B
3,3,23/12/93,22,f,28,The pan washed Beth,Non-sensible,edin_semantics,emo_sem_emo_sem,0.621340244673775,1,1,1,1,20321.6179409154,132,B
3,3,23/12/93,22,f,29,Carl brushed the teeth,Sensible,edin_semantics,emo_sem_emo_sem,0.68013590902774,1,1,1,1,20323.0410196641,72,B
3,3,23/12/93,22,f,30,Beth wiped the table,Sensible,edin_semantics,emo_sem_emo_sem,0.539055564393493,2,1,1,1,20324.3230039564,40,B
3,3,23/12/93,22,f,31,Leah sucked the lolly,Sensible,edin_semantics,emo_sem_emo_sem,0.774136232314049,1,1,1,1,20325.8402074685,12,B
3,3,23/12/93,22,f,32,The plants watered Luke,Non-sensible,edin_semantics,emo_sem_emo_sem,0.986053737564362,2,2,2,1,20327.5690978868,129,B
3,3,23/12/93,22,f,33,Jane punched the wall,Sensible,edin_semantics,emo_sem_emo_sem,0.691849627706688,1,1,2,0,20329.0039727797,50,B
3,3,23/12/93,22,f,34,The perfume sniffed Tim,Non-sensible,edin_semantics,emo_sem_emo_sem,0.609503048137412,1,2,2,1,20330.3565078282,93,B
3,3,23/12/93,22,f,35,Jeff watered the garden,Sensible,edin_semantics,emo_sem_emo_sem,0.65624631170067,1,1,1,1,20331.756094033,54,B
3,3,23/12/93,22,f,36,The ticket took Tim,Non-sensible,edin_semantics,emo_sem_emo_sem,0.844920794570498,1,1,1,1,20333.3438723553,128,B
3,3,23/12/93,22,f,37,The pot scrubbed Josh,Non-sensible,edin_semantics,emo_sem_emo_sem,0.644805527190329,1,2,2,1,20334.7316492664,131,B
3,3,23/12/93,22,f,38,The house dusted Alex,Non-sensible,edin_semantics,emo_sem_emo_sem,0.726897774449753,1,1,1,1,20336.2018131681,122,B
3,3,23/12/93,22,f,39,The onion sliced Liam,Non-sensible,edin_semantics,emo_sem_emo_sem,0.833045111430692,1,1,1,1,20337.7777902147,78,B
3,3,23/12/93,22,f,40,The candy sucked Sam,Non-sensible,edin_semantics,emo_sem_emo_sem,0.950809629863215,2,2,2,1,20339.4714063775,87,B
3,3,23/12/93,22,f,41,Tom knitted the scarf,Sensible,edin_semantics,emo_sem_emo_sem,1.8441369507309,2,1,1,1,20342.058861733,66,B
3,3,23/12/93,22,f,42,The bath cleaned Jack,Non-sensible,edin_semantics,emo_sem_emo_sem,0.844545229454525,1,1,1,1,20343.6466333202,80,B
3,3,23/12/93,22,f,43,The radio got Ben,Non-sensible,edin_semantics,emo_sem_emo_sem,0.868579151549056,2,1,1,1,20345.2579615955,88,B
3,3,23/12/93,22,f,44,Liz scrubbed the bowl,Sensible,edin_semantics,emo_sem_emo_sem,0.538872432302014,1,1,1,1,20346.5398750083,56,B
3,3,23/12/93,22,f,45,The dress wore Kate,Non-sensible,edin_semantics,emo_sem_emo_sem,0.703304523973202,2,1,1,1,20347.9865033894,100,B
3,3,23/12/93,22,f,46,Beth took the photo,Sensible,edin_semantics,emo_sem_emo_sem,0.774255220065243,1,2,2,1,20349.5036834887,53,B
3,3,23/12/93,22,f,47,Jen fixed the laptop,Sensible,edin_semantics,emo_sem_emo_sem,1.30353614918567,2,2,2,1,20351.5501265568,37,B
3,3,23/12/93,22,f,48,The bowl dented Ian,Non-sensible,edin_semantics,emo_sem_emo_sem,0.844373964067927,2,1,1,1,20353.1378949367,146,B
3,3,23/12/93,22,f,49,Ella watched the movie,Sensible,edin_semantics,emo_sem_emo_sem,0.915534091433074,2,2,2,1,20354.7961922637,33,B
3,3,23/12/93,22,f,50,Liz labeled the jar,Sensible,edin_semantics,emo_sem_emo_sem,0.973909931082744,1,2,2,1,20356.5133372119,61,B
3,3,23/12/93,22,f,51,The hedge jumped Sara,Non-sensible,edin_semantics,emo_sem_emo_sem,0.785379772980377,2,1,1,1,20358.0422717616,92,B
3,3,23/12/93,22,f,52,The stairs climbed Ben,Non-sensible,edin_semantics,emo_sem_emo_sem,0.974043030586472,2,2,2,1,20359.7594109369,143,B
3,3,23/12/93,22,f,53,The message typed Eve,Non-sensible,edin_semantics,emo_sem_emo_sem,0.738312259778468,1,1,1,1,20361.2413206293,124,B
3,3,23/12/93,22,f,54,Phil chopped the herbs,Sensible,edin_semantics,emo_sem_emo_sem,0.668124881332915,1,2,2,1,20362.6526590395,27,B
3,3,23/12/93,22,f,55,The sugar weighed Liz,Non-sensible,edin_semantics,emo_sem_emo_sem,1.60894884103982,2,2,2,1,20365.0049182673,139,B
3,3,23/12/93,22,f,56,Mary visited the museum,Sensible,edin_semantics,emo_sem_emo_sem,0.938329707041703,1,1,1,1,20366.6867469454,16,B
3,3,23/12/93,22,f,57,Mark washed the dishes,Sensible,edin_semantics,emo_sem_emo_sem,0.726799954329181,2,2,2,1,20368.1568531172,57,B
3,3,23/12/93,22,f,58,The carrots grated Tom,Non-sensible,edin_semantics,emo_sem_emo_sem,0.809701703161409,2,1,1,1,20369.7094129895,140,B
3,3,23/12/93,22,f,59,Erin posted the card,Sensible,edin_semantics,emo_sem_emo_sem,0.633075130983343,1,1,1,1,20371.0854469963,36,B
3,3,23/12/93,22,f,60,The car lent Fred,Non-sensible,edin_semantics,emo_sem_emo_sem,0.868262599233276,1,1,1,1,20372.6967300498,94,B
3,3,23/12/93,22,f,61,The hair brushed Dan,Non-sensible,edin_semantics,emo_sem_emo_sem,0.6567103960042,1,2,2,1,20374.09626975,147,B
3,3,23/12/93,22,f,62,Rob mailed the parcel,Sensible,edin_semantics,emo_sem_emo_sem,0.691511266311863,2,1,2,0,20375.5311388699,14,B
3,3,23/12/93,22,f,63,Jon cut the paper,Sensible,edin_semantics,emo_sem_emo_sem,1.40930535528241,1,1,1,1,20377.6834297209,20,B
3,3,23/12/93,22,f,64,Eve taught the lesson,Sensible,edin_semantics,emo_sem_emo_sem,0.738726952939032,1,2,1,0,20379.1653326782,15,B
3,3,23/12/93,22,f,65,Sam tidied the room,Sensible,edin_semantics,emo_sem_emo_sem,0.844916945909063,1,1,1,1,20380.7531029825,2,B
3,3,23/12/93,22,f,66,The donut iced Joe,Non-sensible,edin_semantics,emo_sem_emo_sem,0.950923165346467,1,2,2,1,20382.446733257,119,B
3,3,23/12/93,22,f,67,Mike paid the bill,Sensible,edin_semantics,emo_sem_emo_sem,1.93868089730313,2,2,2,1,20385.1282607775,59,B
3,3,23/12/93,22,f,68,The pillow hugged Kate,Non-sensible,edin_semantics,emo_sem_emo_sem,1.26837510840414,2,1,1,1,20387.1394449847,86,B
3,3,23/12/93,22,f,69,The rope pulled Andy,Non-sensible,edin_semantics,emo_sem_emo_sem,1.00921722095882,1,1,1,1,20388.8918215325,148,B
3,3,23/12/93,22,f,70,The door kicked Max,Non-sensible,edin_semantics,emo_sem_emo_sem,1.19747604850272,2,1,1,1,20390.8324007815,114,B
3,3,23/12/93,22,f,71,The rice stored Fred,Non-sensible,edin_semantics,emo_sem_emo_sem,0.644929005044105,2,2,2,1,20392.2202565902,127,B
3,3,23/12/93,22,f,72,The trousers ironed Eve,Non-sensible,edin_semantics,emo_sem_emo_sem,0.574423149948416,1,1,1,1,20393.5374849902,130,B
3,3,23/12/93,22,f,73,Kate built the house,Sensible,edin_semantics,emo_sem_emo_sem,2.06809563151546,2,1,1,1,20396.3484105674,46,B
3,3,23/12/93,22,f,74,The church described Erin,Non-sensible,edin_semantics,emo_sem_emo_sem,0.70350978586066,1,2,2,1,20397.7950274025,117,B
3,3,23/12/93,22,f,75,The dessert served Fred,Non-sensible,edin_semantics,emo_sem_emo_sem,0.644768644193391,1,2,2,1,20399.1828158596,145,B
3,3,23/12/93,22,f,76,Kate lifted the box,Sensible,edin_semantics,emo_sem_emo_sem,0.69217387734534,1,2,2,1,20400.6176990912,69,B
3,3,23/12/93,22,f,77,Tim pulled the handle,Sensible,edin_semantics,emo_sem_emo_sem,0.573894279863453,1,2,2,1,20401.9349512246,73,B
3,3,23/12/93,22,f,78,The report filed Ian,Non-sensible,edin_semantics,emo_sem_emo_sem,0.586204540904873,1,2,2,1,20403.2639741652,99,B
3,3,23/12/93,22,f,79,Andy grated the cheese,Sensible,edin_semantics,emo_sem_emo_sem,0.45676543184527,1,2,2,1,20404.4635891068,65,B
3,3,23/12/93,22,f,80,The office entered Joe,Non-sensible,edin_semantics,emo_sem_emo_sem,0.55033085650939,1,2,2,1,20405.757340999,133,B
3,3,23/12/93,22,f,81,The debt paid Zoe,Non-sensible,edin_semantics,emo_sem_emo_sem,0.938590133064281,1,1,1,1,20407.4391837889,134,B
3,3,23/12/93,22,f,82,The gift posted Jack,Non-sensible,edin_semantics,emo_sem_emo_sem,0.644322841028043,1,2,2,1,20408.8270351075,111,B
3,3,23/12/93,22,f,83,The fat chewed Adam,Non-sensible,edin_semantics,emo_sem_emo_sem,0.750779033009167,1,1,1,1,20410.3206771205,106,B
3,3,23/12/93,22,f,84,Sean read the book,Sensible,edin_semantics,emo_sem_emo_sem,0.880403839935752,1,1,1,1,20411.9437107757,4,B
3,3,23/12/93,22,f,85,Max kissed the mirror,Sensible,edin_semantics,emo_sem_emo_sem,1.23305755543333,2,2,2,1,20413.9195825615,23,B
3,3,23/12/93,22,f,86,Luke swallowed the pill,Sensible,edin_semantics,emo_sem_emo_sem,1.09188259789516,1,1,1,1,20415.7543541178,22,B
3,3,23/12/93,22,f,87,Josh ironed the shirt,Sensible,edin_semantics,emo_sem_emo_sem,1.45664227471207,2,2,2,1,20417.9536691845,55,B
3,3,23/12/93,22,f,88,The cream whisked Tom,Non-sensible,edin_semantics,emo_sem_emo_sem,0.85641032877902,2,2,2,1,20419.5531897697,137,B
3,3,23/12/93,22,f,89,Ewan wrote the story,Sensible,edin_semantics,emo_sem_emo_sem,0.915100154972606,1,1,1,1,20421.2115018499,74,B
3,3,23/12/93,22,f,90,Jon polished the coins,Sensible,edin_semantics,emo_sem_emo_sem,0.668335274767742,1,2,2,1,20422.6228649556,29,B
3,3,23/12/93,22,f,91,The internet searched Max,Non-sensible,edin_semantics,emo_sem_emo_sem,0.585771566609765,1,2,2,1,20423.9518798782,85,B
3,3,23/12/93,22,f,92,The portrait painted Jay,Non-sensible,edin_semantics,emo_sem_emo_sem,0.644786283886788,1,1,1,1,20425.3396830885,110,B
3,3,23/12/93,22,f,93,Lily got the kettle,Sensible,edin_semantics,emo_sem_emo_sem,0.503784836793784,1,2,2,1,20426.5863498278,13,B
3,3,23/12/93,22,f,94,Jen weighed the flour,Sensible,edin_semantics,emo_sem_emo_sem,0.844789940114424,2,1,1,1,20428.1741518835,64,B
3,3,23/12/93,22,f,95,Tim cleaned the floor,Sensible,edin_semantics,emo_sem_emo_sem,0.84511579336322,2,2,2,1,20429.7618987751,5,B
3,3,23/12/93,22,f,96,The invite mailed Ian,Non-sensible,edin_semantics,emo_sem_emo_sem,0.750542981837498,1,2,2,1,20431.2555799161,89,B
3,3,23/12/93,22,f,97,The button pushed Ian,Non-sensible,edin_semantics,emo_sem_emo_sem,0.586095174803631,1,2,2,1,20432.5845473719,101,B
3,3,23/12/93,22,f,98,The rose kissed Hugh,Non-sensible,edin_semantics,emo_sem_emo_sem,0.726995594566688,1,1,1,1,20434.0547484772,98,B
3,3,23/12/93,22,f,99,The monitor punched Erin,Non-sensible,edin_semantics,emo_sem_emo_sem,0.92702651214131,2,2,2,1,20435.7248130834,125,B
3,3,23/12/93,22,f,100,Erin crushed the garlic,Sensible,edin_semantics,emo_sem_emo_sem,1.03295319259269,1,1,1,1,20437.5007164923,6,B
3,3,23/12/93,22,f,101,Joe solved the puzzle,Sensible,edin_semantics,emo_sem_emo_sem,0.903598754059203,2,1,1,1,20439.1472859888,34,B
3,3,23/12/93,22,f,102,Tim ate the ham,Sensible,edin_semantics,emo_sem_emo_sem,5.73734913251246,2,2,2,1,20445.627677064,67,B
3,3,23/12/93,22,f,103,Bill counted the sheets,Sensible,edin_semantics,emo_sem_emo_sem,0.538939142417803,1,1,1,1,20446.9096267184,48,B
3,3,23/12/93,22,f,104,Phil typed the letter,Sensible,edin_semantics,emo_sem_emo_sem,0.691669382111286,1,2,2,1,20448.344530797,49,B
3,3,23/12/93,22,f,105,Matt drank the juice,Sensible,edin_semantics,emo_sem_emo_sem,1.16242341166071,1,1,1,1,20450.2498422049,60,B
3,3,23/12/93,22,f,106,The radio fixed Luke,Non-sensible,edin_semantics,emo_sem_emo_sem,0.879950660175382,2,1,1,1,20451.8728360907,112,B
3,3,23/12/93,22,f,107,Dan whisked the eggs,Sensible,edin_semantics,emo_sem_emo_sem,0.562678321264684,1,1,1,1,20453.1783671288,62,B
3,3,23/12/93,22,f,108,The wallet carried Leo,Non-sensible,edin_semantics,emo_sem_emo_sem,0.821181294995768,2,1,1,1,20454.742635909,150,B
3,3,23/12/93,22,f,109,Tom dialed the number,Sensible,edin_semantics,emo_sem_emo_sem,0.832856206350698,2,2,2,1,20456.3185905051,63,B
3,3,23/12/93,22,f,110,Will mashed the potatoes,Sensible,edin_semantics,emo_sem_emo_sem,0.609706706418365,2,1,1,1,20457.6711531356,28,B
3,3,23/12/93,22,f,111,The hospital visited Tom,Non-sensible,edin_semantics,emo_sem_emo_sem,0.703360970990616,2,2,2,1,20459.1177542553,91,B
3,3,23/12/93,22,f,112,The hair trimmed Bill,Non-sensible,edin_semantics,emo_sem_emo_sem,1.83262464528161,2,2,2,1,20461.6934978165,107,B
3,3,23/12/93,22,f,113,Leo stored the wine,Sensible,edin_semantics,emo_sem_emo_sem,1.47960755209715,2,1,1,1,20463.9163384615,52,B
3,3,23/12/93,22,f,114,The nuts mixed Liam,Non-sensible,edin_semantics,emo_sem_emo_sem,1.703568477933,2,2,2,1,20466.362666647,83,B
3,3,23/12/93,22,f,115,Rob stroked the fur,Sensible,edin_semantics,emo_sem_emo_sem,1.11550118538798,2,2,2,1,20468.2209252949,41,B
3,3,23/12/93,22,f,116,Max lent the bucket,Sensible,edin_semantics,emo_sem_emo_sem,1.33893580691074,1,2,2,1,20470.3026095842,19,B
3,3,23/12/93,22,f,117,The desk wiped Lucy,Non-sensible,edin_semantics,emo_sem_emo_sem,1.17379459955919,2,2,2,1,20472.2197296444,115,B
3,3,23/12/93,22,f,118,Ryan carried the gun,Sensible,edin_semantics,emo_sem_emo_sem,0.856860942767526,1,2,2,1,20473.8192111016,75,B
3,3,23/12/93,22,f,119,The problem solved Phil,Non-sensible,edin_semantics,emo_sem_emo_sem,1.79757072555003,2,2,2,1,20476.3596422414,109,B
3,3,23/12/93,22,f,120,The sweets offered Tom,Non-sensible,edin_semantics,emo_sem_emo_sem,0.762084472964489,2,1,1,1,20477.8650566651,84,B
3,3,23/12/93,22,f,121,Ian cancelled the plans,Sensible,edin_semantics,emo_sem_emo_sem,1.86826388211557,1,2,2,1,20480.4760331087,7,B
3,3,23/12/93,22,f,122,Mary iced the cake,Sensible,edin_semantics,emo_sem_emo_sem,0.714951532539999,1,1,1,1,20481.9344178645,44,B
3,3,23/12/93,22,f,123,The gum swallowed Owen,Non-sensible,edin_semantics,emo_sem_emo_sem,0.586087477484398,1,2,2,1,20483.2634420879,97,B
3,3,23/12/93,22,f,124,Ryan painted the picture,Sensible,edin_semantics,emo_sem_emo_sem,0.726933695277694,2,2,2,1,20484.7335841805,35,B
3,3,23/12/93,22,f,125,The crate lifted Amy,Non-sensible,edin_semantics,emo_sem_emo_sem,2.49114936394471,1,1,1,1,20487.9678829289,144,B
3,3,23/12/93,22,f,126,The shed built Rose,Non-sensible,edin_semantics,emo_sem_emo_sem,2.95014766027089,2,2,2,1,20491.6609038322,121,B
3,3,23/12/93,22,f,127,The box labeled Ian,Non-sensible,edin_semantics,emo_sem_emo_sem,1.0209322225237,1,1,1,1,20493.4250701098,136,B
3,3,23/12/93,22,f,128,Ryan entered the room,Sensible,edin_semantics,emo_sem_emo_sem,0.655930400826037,2,1,1,1,20494.8246649741,58,B
3,3,23/12/93,22,f,129,Matt pushed the trolley,Sensible,edin_semantics,emo_sem_emo_sem,1.60863132655504,1,1,1,1,20497.1769072037,26,B
3,3,23/12/93,22,f,130,The socks knitted Ryan,Non-sensible,edin_semantics,emo_sem_emo_sem,0.809365586817876,2,2,2,1,20498.7293525783,141,B
3,3,23/12/93,22,f,131,The curtains measured Rob,Non-sensible,edin_semantics,emo_sem_emo_sem,0.620946398426895,2,1,1,1,20500.0936879404,126,B
3,3,23/12/93,22,f,132,The ribbon cut Lucy,Non-sensible,edin_semantics,emo_sem_emo_sem,0.562388068126893,1,2,1,0,20501.3991548342,95,B
3,3,23/12/93,22,f,133,The kettle carried John,Non-sensible,edin_semantics,emo_sem_emo_sem,0.891819928874611,2,2,2,1,20503.0339586551,105,B
3,3,23/12/93,22,f,134,Joe wore the jumper,Sensible,edin_semantics,emo_sem_emo_sem,0.856180692040653,1,2,2,1,20504.6334686565,25,B
3,3,23/12/93,22,f,135,Lara filed the papers,Sensible,edin_semantics,emo_sem_emo_sem,0.927100919572695,2,1,1,1,20506.3035297347,24,B
3,3,23/12/93,22,f,136,Carl sold the sofa,Sensible,edin_semantics,emo_sem_emo_sem,1.45684208433158,2,1,2,0,20508.503360522,38,B
3,3,23/12/93,22,f,137,The hotline dialed Hugh,Non-sensible,edin_semantics,emo_sem_emo_sem,1.25380760803091,1,1,1,1,20510.5022963674,138,B
3,3,23/12/93,22,f,138,The opera watched Adam,Non-sensible,edin_semantics,emo_sem_emo_sem,0.621059292461723,2,1,1,1,20511.8665871491,108,B
3,3,23/12/93,22,f,139,Jake dusted the shelf,Sensible,edin_semantics,emo_sem_emo_sem,0.797556293073285,1,2,2,1,20513.4072963545,47,B
3,3,23/12/93,22,f,140,Lily dented the lorry,Sensible,edin_semantics,emo_sem_emo_sem,3.85555785049655,2,2,2,1,20518.0059381623,71,B
3,3,23/12/93,22,f,141,Jon jumped the fence,Sensible,edin_semantics,emo_sem_emo_sem,0.939017013643024,2,2,2,1,20519.6877713306,17,B
3,3,23/12/93,22,f,142,Kate served the dish,Sensible,edin_semantics,emo_sem_emo_sem,0.938670634208393,1,1,1,1,20521.3695990466,70,B
3,3,23/12/93,22,f,143,The rope pulled Emma,Non-sensible,edin_semantics,emo_sem_emo_sem,0.903602923441213,1,1,1,1,20523.0161704674,120,B
3,3,23/12/93,22,f,144,The party cancelled Phil,Non-sensible,edin_semantics,emo_sem_emo_sem,0.503436212300585,1,1,1,1,20524.2628622231,82,B
3,3,23/12/93,22,f,145,Will licked the spoon,Sensible,edin_semantics,emo_sem_emo_sem,2.79701812205894,2,2,2,1,20527.8029617366,21,B
3,3,23/12/93,22,f,146,The plate licked Jane,Non-sensible,edin_semantics,emo_sem_emo_sem,0.867873884530127,1,1,1,1,20529.4142816732,96,B
3,3,23/12/93,22,f,147,Jon trimmed the bushes,Sensible,edin_semantics,emo_sem_emo_sem,3.73780551948948,2,1,1,1,20533.8952708944,32,B
3,3,23/12/93,22,f,148,Ben chewed the toffee,Sensible,edin_semantics,emo_sem_emo_sem,0.938632147604949,1,2,2,1,20535.5771306825,31,B
3,3,23/12/93,22,f,149,Matt kicked the bike,Sensible,edin_semantics,emo_sem_emo_sem,0.997371364937862,1,2,2,1,20537.3177466863,39,B
3,3,23/12/93,22,f,150,Phil passed the towels,Sensible,edin_semantics,emo_sem_emo_sem,0.703511710191378,1,2,2,1,20538.7643843683,43,B
3,3,23/12/93,22,f,24,The jar labeled Liz,Non-sensible,edin_semantics,emo_sem_emo_sem,0.708219904758153,2,2,2,1,20542.5397300421,61,A
3,3,23/12/93,22,f,25,The floor cleaned Tim,Non-sensible,edin_semantics,emo_sem_emo_sem,1.06505358618233,2,2,2,1,20544.3509413823,5,A
3,3,23/12/93,22,f,26,Josh crushed the ice,Sensible,edin_semantics,emo_sem_emo_sem,3.43182354661622,2,2,2,1,20548.5261628727,81,A
3,3,23/12/93,22,f,27,The sofa sold Carl,Non-sensible,edin_semantics,emo_sem_emo_sem,2.10266301642696,2,1,1,1,20551.372344745,38,A
3,3,23/12/93,22,f,28,The puzzle solved Joe,Non-sensible,edin_semantics,emo_sem_emo_sem,1.53843368501475,2,1,1,1,20553.6540381428,34,A
3,3,23/12/93,22,f,29,Owen swallowed the gum,Sensible,edin_semantics,emo_sem_emo_sem,0.668328539613867,1,2,2,1,20555.0653685349,97,A
3,3,23/12/93,22,f,30,The sheets counted Bill,Non-sensible,edin_semantics,emo_sem_emo_sem,0.620867821606225,2,1,1,1,20556.4296580337,48,A
3,3,23/12/93,22,f,31,Ian mailed the invite,Sensible,edin_semantics,emo_sem_emo_sem,1.31506449071821,1,2,2,1,20558.4878606836,89,A
3,3,23/12/93,22,f,32,The house built Kate,Non-sensible,edin_semantics,emo_sem_emo_sem,0.985661815644562,2,1,1,1,20560.2167440461,46,A
3,3,23/12/93,22,f,33,The coins polished Jon,Non-sensible,edin_semantics,emo_sem_emo_sem,0.727099829116924,1,2,2,1,20561.6869040991,29,A
3,3,23/12/93,22,f,34,The number dialed Tom,Non-sensible,edin_semantics,emo_sem_emo_sem,0.891242629815679,2,2,2,1,20563.3217034299,63,A
3,3,23/12/93,22,f,35,The garden watered Jeff,Non-sensible,edin_semantics,emo_sem_emo_sem,0.715009583163919,1,1,1,1,20564.7800859406,54,A
3,3,23/12/93,22,f,36,The herbs chopped Phil,Non-sensible,edin_semantics,emo_sem_emo_sem,0.785516079704394,2,2,2,1,20566.3090083028,27,A
3,3,23/12/93,22,f,37,Tim took the ticket,Sensible,edin_semantics,emo_sem_emo_sem,1.02098001006016,1,1,1,1,20568.0732393662,128,A
3,3,23/12/93,22,f,38,Luke fixed the radio,Sensible,edin_semantics,emo_sem_emo_sem,0.750400902124966,1,1,1,1,20569.5669003017,112,A
3,3,23/12/93,22,f,39,The bushes trimmed Jon,Non-sensible,edin_semantics,emo_sem_emo_sem,0.432515984772181,1,1,1,1,20570.7429864578,32,A
3,3,23/12/93,22,f,40,The kettle got Lily,Non-sensible,edin_semantics,emo_sem_emo_sem,0.809218696278549,2,2,2,1,20572.295463584,13,A
3,3,23/12/93,22,f,41,Beth washed the pan,Sensible,edin_semantics,emo_sem_emo_sem,0.808733123623824,2,1,1,1,20573.8479782345,132,A
3,3,23/12/93,22,f,42,The picture painted Ryan,Non-sensible,edin_semantics,emo_sem_emo_sem,0.903232810596819,2,2,2,1,20575.4945108481,35,A
3,3,23/12/93,22,f,43,The potatoes mashed Will,Non-sensible,edin_semantics,emo_sem_emo_sem,0.761963240162004,2,1,1,1,20576.9999685693,28,A
3,3,23/12/93,22,f,44,Ben got the radio,Sensible,edin_semantics,emo_sem_emo_sem,3.46748106459199,2,1,2,0,20581.2104630323,88,A
3,3,23/12/93,22,f,45,The gun carried Ryan,Non-sensible,edin_semantics,emo_sem_emo_sem,2.2439653004767,2,2,2,1,20584.197793563,75,A
3,3,23/12/93,22,f,46,Luke read the poster,Sensible,edin_semantics,emo_sem_emo_sem,4.21978063918868,2,2,2,1,20589.1609952379,79,A
3,3,23/12/93,22,f,47,The thread measured Amy,Non-sensible,edin_semantics,emo_sem_emo_sem,0.821019651259121,1,2,1,0,20590.7252890344,51,A
3,3,23/12/93,22,f,48,Ian filed the report,Sensible,edin_semantics,emo_sem_emo_sem,1.4678607990827,1,2,2,1,20592.9363005008,99,A
3,3,23/12/93,22,f,49,Ben climbed the stairs,Sensible,edin_semantics,emo_sem_emo_sem,0.868274145213945,1,2,2,1,20594.5476752808,143,A
3,3,23/12/93,22,f,50,The toffee chewed Ben,Non-sensible,edin_semantics,emo_sem_emo_sem,1.13835805883718,1,2,2,1,20596.4293982491,31,A
3,3,23/12/93,22,f,51,Hugh kissed the rose,Sensible,edin_semantics,emo_sem_emo_sem,1.04382245103261,2,1,1,1,20598.2170676543,98,A
3,3,23/12/93,22,f,52,Hugh dialed the hotline,Sensible,edin_semantics,emo_sem_emo_sem,0.844481726559025,1,1,2,0,20599.8048421279,138,A
3,3,23/12/93,22,f,53,Fred served the dessert,Sensible,edin_semantics,emo_sem_emo_sem,0.773605117177794,1,2,2,1,20601.3220507715,145,A
3,3,23/12/93,22,f,54,The box lifted Kate,Non-sensible,edin_semantics,emo_sem_emo_sem,0.667942390682583,2,2,2,1,20602.7333933511,69,A
3,3,23/12/93,22,f,55,Andy pulled the rope,Sensible,edin_semantics,emo_sem_emo_sem,2.549608270514,1,1,1,1,20606.0265243261,148,A
3,3,23/12/93,22,f,56,The eggs whisked Dan,Non-sensible,edin_semantics,emo_sem_emo_sem,3.25550005644618,1,1,1,1,20610.0253556162,62,A
3,3,23/12/93,22,f,57,Liam sliced the onion,Sensible,edin_semantics,emo_sem_emo_sem,2.69092113838269,2,1,1,1,20613.4595893864,78,A
3,3,23/12/93,22,f,58,The pen described John,Non-sensible,edin_semantics,emo_sem_emo_sem,0.797266039935494,2,1,1,1,20615.0003329091,42,A
3,3,23/12/93,22,f,59,The museum visited Mary,Non-sensible,edin_semantics,emo_sem_emo_sem,0.620763907776563,1,1,1,1,20616.3646140692,16,A
3,3,23/12/93,22,f,60,Alex wrote the report,Sensible,edin_semantics,emo_sem_emo_sem,0.820968656509649,1,2,2,1,20617.9288450042,149,A
3,3,23/12/93,22,f,61,Tom visited the hospital,Sensible,edin_semantics,emo_sem_emo_sem,0.903064110982086,1,2,2,1,20619.5753923709,91,A
3,3,23/12/93,22,f,62,Ian dented the bowl,Sensible,edin_semantics,emo_sem_emo_sem,1.34974316606167,1,1,1,1,20621.6688618998,146,A
3,3,23/12/93,22,f,63,The lesson taught Eve,Non-sensible,edin_semantics,emo_sem_emo_sem,1.18509619085307,2,2,2,1,20623.5977271095,15,A
3,3,23/12/93,22,f,64,The parcel mailed Rob,Non-sensible,edin_semantics,emo_sem_emo_sem,0.77335046414737,1,1,1,1,20625.1149007944,14,A
3,3,23/12/93,22,f,65,Liam mixed the nuts,Sensible,edin_semantics,emo_sem_emo_sem,3.57295360311764,2,2,2,1,20629.4312796026,83,A
3,3,23/12/93,22,f,66,The movie watched Ella,Non-sensible,edin_semantics,emo_sem_emo_sem,1.8436270032289,2,2,2,1,20632.0187509942,33,A
3,3,23/12/93,22,f,67,The mirror kissed Max,Non-sensible,edin_semantics,emo_sem_emo_sem,1.76179550271263,2,2,2,1,20634.5238414891,23,A
3,3,23/12/93,22,f,68,The book read Sean,Non-sensible,edin_semantics,emo_sem_emo_sem,0.997211645531934,2,1,1,1,20636.2644873199,4,A
3,3,23/12/93,22,f,69,Tim sniffed the perfume,Sensible,edin_semantics,emo_sem_emo_sem,1.92611694539301,2,2,2,1,20638.9343059326,93,A
3,3,23/12/93,22,f,70,The table wiped Beth,Non-sensible,edin_semantics,emo_sem_emo_sem,0.750350228096067,1,1,1,1,20640.4279242122,40,A
3,3,23/12/93,22,f,71,The bucket lent Max,Non-sensible,edin_semantics,emo_sem_emo_sem,0.820107518742589,1,2,2,1,20641.9921814464,19,A
3,3,23/12/93,22,f,72,Phil cancelled the party,Sensible,edin_semantics,emo_sem_emo_sem,0.573974460290628,2,1,1,1,20643.3094685385,82,A
3,3,23/12/93,22,f,73,Josh taught the rules,Sensible,edin_semantics,emo_sem_emo_sem,1.17371987140359,1,1,1,1,20645.2265244544,90,A
3,3,23/12/93,22,f,74,The hill climbed Luke,Non-sensible,edin_semantics,emo_sem_emo_sem,0.903211001525051,1,1,1,1,20646.8730785563,68,A
3,3,23/12/93,22,f,75,Ian labeled the box,Sensible,edin_semantics,emo_sem_emo_sem,2.77284725179925,1,1,1,1,20650.3896617926,136,A
3,3,23/12/93,22,f,76,The scarf knitted Tom,Non-sensible,edin_semantics,emo_sem_emo_sem,0.597233839474939,1,1,1,1,20651.7304372591,66,A
3,3,23/12/93,22,f,77,The fence jumped Jon,Non-sensible,edin_semantics,emo_sem_emo_sem,0.750330343351379,1,2,2,1,20653.2241068542,17,A
3,3,23/12/93,22,f,78,The fur stroked Rob,Non-sensible,edin_semantics,emo_sem_emo_sem,1.42091227363562,1,2,2,1,20655.3881637015,41,A
3,3,23/12/93,22,f,79,Fred chopped the carrots,Sensible,edin_semantics,emo_sem_emo_sem,0.832655113841611,2,1,1,1,20656.9641818005,102,A
3,3,23/12/93,22,f,80,Erin punched the monitor,Sensible,edin_semantics,emo_sem_emo_sem,0.585442506144318,1,2,2,1,20658.2931675373,125,A
3,3,23/12/93,22,f,81,The folder carried Dan,Non-sensible,edin_semantics,emo_sem_emo_sem,0.808910482723149,1,1,1,1,20659.8456667932,30,A
3,3,23/12/93,22,f,82,Amy lifted the crate,Sensible,edin_semantics,emo_sem_emo_sem,0.856240025557781,1,1,1,1,20661.4451941136,144,A
3,3,23/12/93,22,f,83,Sara jumped the hedge,Sensible,edin_semantics,emo_sem_emo_sem,0.749959268345265,2,1,1,1,20662.9388383717,92,A
3,3,23/12/93,22,f,84,The room tidied Sam,Non-sensible,edin_semantics,emo_sem_emo_sem,0.726456140666414,2,1,1,1,20664.4089820678,2,A
3,3,23/12/93,22,f,85,The plans cancelled Ian,Non-sensible,edin_semantics,emo_sem_emo_sem,0.632832023933588,1,2,2,1,20665.7850212061,7,A
3,3,23/12/93,22,f,86,The bowl scrubbed Liz,Non-sensible,edin_semantics,emo_sem_emo_sem,1.04427338574169,2,1,1,1,20667.5727630944,56,A
3,3,23/12/93,22,f,87,Erin described the church,Sensible,edin_semantics,emo_sem_emo_sem,0.656156830347754,1,2,2,1,20668.9722893243,117,A
3,3,23/12/93,22,f,88,Jack drank the beer,Sensible,edin_semantics,emo_sem_emo_sem,1.479861884407,2,2,2,1,20671.1951780775,135,A
3,3,23/12/93,22,f,89,The papers filed Lara,Non-sensible,edin_semantics,emo_sem_emo_sem,0.903313311744569,2,1,1,1,20672.8417334623,24,A
3,3,23/12/93,22,f,90,Ella mashed the turnip,Sensible,edin_semantics,emo_sem_emo_sem,0.937479153089953,1,2,2,1,20674.5235865153,103,A
3,3,23/12/93,22,f,91,Fred stored the rice,Sensible,edin_semantics,emo_sem_emo_sem,0.949461957276071,1,2,2,1,20676.2172193557,127,A
3,3,23/12/93,22,f,92,Eve ironed the trousers,Sensible,edin_semantics,emo_sem_emo_sem,0.715169302569848,2,1,1,1,20677.6755781329,130,A
3,3,23/12/93,22,f,93,Joe entered the office,Sensible,edin_semantics,emo_sem_emo_sem,0.727041137048218,2,2,2,1,20679.1457038687,133,A
3,3,23/12/93,22,f,94,Ryan knitted the socks,Sensible,edin_semantics,emo_sem_emo_sem,0.550610846552445,1,2,1,0,20680.4394750042,141,A
3,3,23/12/93,22,f,95,Ian pushed the button,Sensible,edin_semantics,emo_sem_emo_sem,0.690890028377908,1,2,2,1,20681.8743345025,101,A
3,3,23/12/93,22,f,96,Alex dusted the house,Sensible,edin_semantics,emo_sem_emo_sem,0.656433613174158,1,1,1,1,20683.273901464,122,A
3,3,23/12/93,22,f,97,John carried the kettle,Sensible,edin_semantics,emo_sem_emo_sem,1.52651470444835,1,2,2,1,20685.5438295069,105,A
3,3,23/12/93,22,f,98,Liz weighed the sugar,Sensible,edin_semantics,emo_sem_emo_sem,2.79660022168537,2,2,2,1,20689.0839460187,139,A
3,3,23/12/93,22,f,99,Jay painted the portrait,Sensible,edin_semantics,emo_sem_emo_sem,0.879569642791466,1,1,1,1,20690.7069921821,110,A
3,3,23/12/93,22,f,100,The lorry dented Lily,Non-sensible,edin_semantics,emo_sem_emo_sem,0.796981239065644,2,2,2,1,20692.2477648905,71,A
3,3,23/12/93,22,f,101,Jack cleaned the bath,Sensible,edin_semantics,emo_sem_emo_sem,0.8562281588529,2,1,1,1,20693.8472854757,80,A
3,3,23/12/93,22,f,102,The room entered Ryan,Non-sensible,edin_semantics,emo_sem_emo_sem,0.714992264191096,1,1,1,1,20695.3056121808,58,A
3,3,23/12/93,22,f,103,Leo passed the salt,Sensible,edin_semantics,emo_sem_emo_sem,0.727325617197494,2,1,1,1,20696.7757109759,118,A
3,3,23/12/93,22,f,104,The fruits mixed Jack,Non-sensible,edin_semantics,emo_sem_emo_sem,2.37336271571621,1,1,1,1,20699.8924549578,8,A
3,3,23/12/93,22,f,105,Tom whisked the cream,Sensible,edin_semantics,emo_sem_emo_sem,1.33824817958157,1,2,2,1,20701.9741976184,137,A
3,3,23/12/93,22,f,106,The handle pulled Tim,Non-sensible,edin_semantics,emo_sem_emo_sem,1.22097949690215,1,2,2,1,20703.9383383665,73,A
3,3,23/12/93,22,f,107,Emma pulled the rope,Sensible,edin_semantics,emo_sem_emo_sem,1.13866242373115,1,1,1,1,20705.8200889169,120,A
3,3,23/12/93,22,f,108,The dish served Kate,Non-sensible,edin_semantics,emo_sem_emo_sem,0.573553352696763,2,1,1,1,20707.137310261,70,A
3,3,23/12/93,22,f,109,Phil solved the problem,Sensible,edin_semantics,emo_sem_emo_sem,0.632469608412066,2,2,1,0,20708.5133824337,109,A
3,3,23/12/93,22,f,110,The photo took Beth,Non-sensible,edin_semantics,emo_sem_emo_sem,0.714865258400096,2,2,2,1,20709.971791885,53,A
3,3,23/12/93,22,f,111,Sam sucked the candy,Sensible,edin_semantics,emo_sem_emo_sem,0.797261549829273,2,2,2,1,20711.5125052598,87,A
3,3,23/12/93,22,f,112,The bike kicked Matt,Non-sensible,edin_semantics,emo_sem_emo_sem,1.53858121699886,2,2,2,1,20713.794156643,39,A
3,3,23/12/93,22,f,113,Dan brushed the hair,Sensible,edin_semantics,emo_sem_emo_sem,0.762060418837791,1,2,2,1,20715.2995848578,147,A
3,3,23/12/93,22,f,114,Mike ate the steak,Sensible,edin_semantics,emo_sem_emo_sem,0.808922028707457,1,1,1,1,20716.8520648705,142,A
3,3,23/12/93,22,f,115,The room searched Jen,Non-sensible,edin_semantics,emo_sem_emo_sem,1.39718752726185,2,1,1,1,20718.9925993468,10,A
3,3,23/12/93,22,f,116,The ball squeezed Josh,Non-sensible,edin_semantics,emo_sem_emo_sem,5.58414775263736,2,2,2,1,20725.3200995007,1,A
3,3,23/12/93,22,f,117,The pill swallowed Luke,Non-sensible,edin_semantics,emo_sem_emo_sem,0.914924078759213,1,1,1,1,20726.9784705937,22,A
3,3,23/12/93,22,f,118,Anna polished the trophy,Sensible,edin_semantics,emo_sem_emo_sem,0.538557162872166,1,1,1,1,20728.2604103057,104,A
3,3,23/12/93,22,f,119,The money offered Matt,Non-sensible,edin_semantics,emo_sem_emo_sem,0.644422264758759,1,2,2,1,20729.6482494368,9,A
3,3,23/12/93,22,f,120,Erin tidied the garage,Sensible,edin_semantics,emo_sem_emo_sem,0.620730552720488,1,2,2,1,20731.0125447086,77,A
3,3,23/12/93,22,f,121,Eve typed the message,Sensible,edin_semantics,emo_sem_emo_sem,0.550317065473791,1,1,1,1,20732.3062613215,124,A
3,3,23/12/93,22,f,122,The wall punched Jane,Non-sensible,edin_semantics,emo_sem_emo_sem,0.550639711502299,1,1,1,1,20733.5999885182,50,A
3,3,23/12/93,22,f,123,The paper cut Jon,Non-sensible,edin_semantics,emo_sem_emo_sem,0.621174431555119,1,1,1,1,20734.9642430583,20,A
3,3,23/12/93,22,f,124,Tom grated the carrots,Sensible,edin_semantics,emo_sem_emo_sem,0.714890595412726,2,1,1,1,20736.4226262104,140,A
3,3,23/12/93,22,f,125,The dishes washed Mark,Non-sensible,edin_semantics,emo_sem_emo_sem,0.71492491263416,1,2,2,1,20737.8810173806,57,A
3,3,23/12/93,22,f,126,Luke watered the plants,Sensible,edin_semantics,emo_sem_emo_sem,0.727238380895869,1,2,2,1,20739.3511889795,129,A
3,3,23/12/93,22,f,127,The cheese grated Andy,Non-sensible,edin_semantics,emo_sem_emo_sem,0.63266075854699,2,2,2,1,20740.7272512098,65,A
3,3,23/12/93,22,f,128,The garlic crushed Erin,Non-sensible,edin_semantics,emo_sem_emo_sem,0.515128763348912,1,1,1,1,20741.9856951707,6,A
3,3,23/12/93,22,f,129,Max searched the internet,Sensible,edin_semantics,emo_sem_emo_sem,0.844253372710227,2,2,2,1,20743.5734754173,85,A
3,3,23/12/93,22,f,130,The letter typed Phil,Non-sensible,edin_semantics,emo_sem_emo_sem,1.30305314230282,1,2,2,1,20745.6198989213,49,A
3,3,23/12/93,22,f,131,Kate hugged the pillow,Sensible,edin_semantics,emo_sem_emo_sem,0.52673985108413,1,1,1,1,20746.8900883524,86,A
3,3,23/12/93,22,f,132,Rob measured the curtains,Sensible,edin_semantics,emo_sem_emo_sem,0.809260390098643,2,1,1,1,20748.4426036444,126,A
3,3,23/12/93,22,f,133,The card posted Erin,Non-sensible,edin_semantics,emo_sem_emo_sem,0.574049188442586,1,1,1,1,20749.7598355724,36,A
3,3,23/12/93,22,f,134,Leo carried the wallet,Sensible,edin_semantics,emo_sem_emo_sem,0.62064908940738,1,1,1,1,20751.1241561812,150,A
3,3,23/12/93,22,f,135,The tomato sliced Liz,Non-sensible,edin_semantics,emo_sem_emo_sem,0.797004651747557,1,2,2,1,20752.6648259379,3,A
3,3,23/12/93,22,f,136,Adam chewed the fat,Sensible,edin_semantics,emo_sem_emo_sem,0.691361810000672,1,1,1,1,20754.099701793,106,A
3,3,23/12/93,22,f,137,The ham ate Tim,Non-sensible,edin_semantics,emo_sem_emo_sem,3.67862947920003,2,2,2,1,20758.52190433,67,A
3,3,23/12/93,22,f,138,Bill trimmed the hair,Sensible,edin_semantics,emo_sem_emo_sem,2.32616563095144,2,2,2,1,20761.5915817609,107,A
3,3,23/12/93,22,f,139,The towels passed Phil,Non-sensible,edin_semantics,emo_sem_emo_sem,1.34986439886779,2,2,2,1,20763.6850730989,43,A
3,3,23/12/93,22,f,140,The jumper wore Joe,Non-sensible,edin_semantics,emo_sem_emo_sem,0.797141920636932,2,2,2,1,20765.2257864738,25,A
3,3,23/12/93,22,f,141,The tree hugged Amy,Non-sensible,edin_semantics,emo_sem_emo_sem,1.78519247150689,2,2,2,1,20767.7544326946,11,A
3,3,23/12/93,22,f,142,Jane licked the plate,Sensible,edin_semantics,emo_sem_emo_sem,5.98408033693704,2,1,1,1,20774.4818497175,96,A
3,3,23/12/93,22,f,143,Kate wore the dress,Sensible,edin_semantics,emo_sem_emo_sem,1.65559043582471,1,1,1,1,20776.8811267467,100,A
3,3,23/12/93,22,f,144,The milk sniffed Phil,Non-sensible,edin_semantics,emo_sem_emo_sem,2.20860829873709,2,1,1,1,20779.8331855875,18,A
3,3,23/12/93,22,f,145,The teeth brushed Carl,Non-sensible,edin_semantics,emo_sem_emo_sem,0.738290450703062,1,1,1,1,20781.3151158062,72,A
3,3,23/12/93,22,f,146,Max kicked the door,Sensible,edin_semantics,emo_sem_emo_sem,0.620943511930818,1,1,1,1,20782.679379968,114,A
3,3,23/12/93,22,f,147,Lucy counted the shoes,Sensible,edin_semantics,emo_sem_emo_sem,0.726707907200762,1,2,2,1,20784.1495397002,123,A
3,3,23/12/93,22,f,148,The cake iced Mary,Non-sensible,edin_semantics,emo_sem_emo_sem,1.57329292667418,2,1,1,1,20786.4664743192,44,A
3,3,23/12/93,22,f,149,The spoon licked Will,Non-sensible,edin_semantics,emo_sem_emo_sem,0.726665571935882,2,2,1,0,20787.9366327685,21,A
3,3,23/12/93,22,f,150,Ryan stroked the blanket,Sensible,edin_semantics,emo_sem_emo_sem,0.714484882460965,1,1,1,1,20789.3950232972,116,A
3,3,23/12/93,22,f,151,Adam watched the opera,Sensible,edin_semantics,emo_sem_emo_sem,0.773667016466788,1,1,1,1,20790.9121931335,108,A
3,3,23/12/93,22,f,152,The flour weighed Jen,Non-sensible,edin_semantics,emo_sem_emo_sem,0.785501967948221,1,1,1,1,20792.4411389084,64,A
3,3,23/12/93,22,f,153,Zoe paid the debt,Sensible,edin_semantics,emo_sem_emo_sem,2.69091728972126,1,1,1,1,20795.8754102031,134,A
3,3,23/12/93,22,f,154,Fred lent the car,Sensible,edin_semantics,emo_sem_emo_sem,2.2200654400549,1,1,1,1,20798.8392231736,94,A
3,3,23/12/93,22,f,155,The shelf dusted Jake,Non-sensible,edin_semantics,emo_sem_emo_sem,0.820545624585066,1,2,2,1,20800.4034669374,47,A
3,3,23/12/93,22,f,156,The lever pulled Hugh,Non-sensible,edin_semantics,emo_sem_emo_sem,1.32623169962244,1,2,2,1,20802.4734269242,45,A
3,3,23/12/93,22,f,157,The laptop fixed Jen,Non-sensible,edin_semantics,emo_sem_emo_sem,0.914759869250702,2,2,2,1,20804.1317415702,37,A
3,3,23/12/93,22,f,158,The wine stored Leo,Non-sensible,edin_semantics,emo_sem_emo_sem,1.29088945108015,2,1,1,1,20806.1664571285,52,A
3,3,23/12/93,22,f,159,Jack posted the gift,Sensible,edin_semantics,emo_sem_emo_sem,1.30345372370721,2,2,2,1,20808.2128803118,111,A
3,3,23/12/93,22,f,160,Jay sold the bed,Sensible,edin_semantics,emo_sem_emo_sem,8.39479750914688,2,2,2,1,20817.3513169474,113,A
3,3,23/12/93,22,f,161,The shirt ironed Josh,Non-sensible,edin_semantics,emo_sem_emo_sem,0.820874364329939,2,2,2,1,20818.9155267148,55,A
3,3,23/12/93,22,f,162,Lucy cut the ribbon,Sensible,edin_semantics,emo_sem_emo_sem,1.97315527292085,2,2,2,1,20821.6323932766,95,A
3,3,23/12/93,22,f,163,Rose built the shed,Sensible,edin_semantics,emo_sem_emo_sem,1.03249584344667,2,2,2,1,20823.4083435109,121,A
3,3,23/12/93,22,f,164,The bill paid Mike,Non-sensible,edin_semantics,emo_sem_emo_sem,0.985463288910978,1,2,2,1,20825.1372252698,59,A
3,3,23/12/93,22,f,165,Josh scrubbed the pot,Sensible,edin_semantics,emo_sem_emo_sem,0.83244985195779,1,2,1,0,20826.7132305399,131,A
3,3,23/12/93,22,f,166,The trolley pushed Matt,Non-sensible,edin_semantics,emo_sem_emo_sem,0.867845019576635,2,1,1,1,20828.3245026889,26,A
3,3,23/12/93,22,f,167,Lucy wiped the desk,Sensible,edin_semantics,emo_sem_emo_sem,2.09123377789729,2,2,2,1,20831.1589467884,115,A
3,3,23/12/93,22,f,168,The juice drank Matt,Non-sensible,edin_semantics,emo_sem_emo_sem,0.915325301604753,1,1,1,1,20832.8172890164,60,A
3,3,23/12/93,22,f,169,The lolly sucked Leah,Non-sensible,edin_semantics,emo_sem_emo_sem,0.550476143438573,1,1,1,1,20834.1109940833,12,A
3,3,23/12/93,22,f,170,Joe iced the donut,Sensible,edin_semantics,emo_sem_emo_sem,0.761460348534456,2,2,2,1,20835.6164809902,119,A
3,3,23/12/93,22,f,171,Jay squeezed the lemon,Sensible,edin_semantics,emo_sem_emo_sem,1.90270329907071,2,1,2,0,20838.2627220677,76,A
3,3,23/12/93,22,f,172,The story wrote Ewan,Non-sensible,edin_semantics,emo_sem_emo_sem,2.23221598169039,2,1,1,1,20841.2382849984,74,A
3,3,23/12/93,22,f,173,Tom offered the sweets,Sensible,edin_semantics,emo_sem_emo_sem,0.903118633676058,1,1,1,1,20842.8848294787,84,A
