subject_column,AssignedList_column,subject_dob_column,subject_age_column,subject_gender_column,trialnum_column,Stim_column,Type_column,Experiment_column,OrderGroup_column,ReactionTime_column,StimSide_column,StimPosition_column,Response_column,Valid_column,TrialEndSecs_column,PairID_column,List_column
30,2,13/11/95,20,f,1,The dishes washed Mark,Non-sensible,edin_semantics,sem_emo_sem_emo,1.13157768140081,2,1,1,1,878604.477298677,57,A
30,2,13/11/95,20,f,2,Eve ironed the trousers,Sensible,edin_semantics,sem_emo_sem_emo,0.878594007343054,2,2,2,1,878606.100338105,130,A
30,2,13/11/95,20,f,3,The money offered Matt,Non-sensible,edin_semantics,sem_emo_sem_emo,0.808206819347106,2,1,1,1,878607.652796308,9,A
30,2,13/11/95,20,f,4,The pen described John,Non-sensible,edin_semantics,sem_emo_sem_emo,1.20829719863832,1,2,2,1,878609.605162721,42,A
30,2,13/11/95,20,f,5,Jack cleaned the bath,Sensible,edin_semantics,sem_emo_sem_emo,1.2083273465978,2,2,2,1,878611.557520796,80,A
30,2,13/11/95,20,f,6,Erin described the church,Sensible,edin_semantics,sem_emo_sem_emo,0.808555764495395,2,1,1,1,878613.109982206,117,A
30,2,13/11/95,20,f,7,The card posted Erin,Non-sensible,edin_semantics,sem_emo_sem_emo,1.32696519012097,1,2,2,1,878615.179969134,36,A
30,2,13/11/95,20,f,8,The handle pulled Tim,Non-sensible,edin_semantics,sem_emo_sem_emo,1.18639094429091,1,1,1,1,878617.109295541,73,A
30,2,13/11/95,20,f,9,The tree hugged Amy,Non-sensible,edin_semantics,sem_emo_sem_emo,0.785207224776968,2,1,1,1,878618.637764403,11,A
30,2,13/11/95,20,f,10,Phil cancelled the party,Sensible,edin_semantics,sem_emo_sem_emo,0.703376044868492,2,2,2,1,878620.084419725,82,A
30,2,13/11/95,20,f,11,The wall punched Jane,Non-sensible,edin_semantics,sem_emo_sem_emo,0.809440315002576,2,2,2,1,878621.63688338,50,A
30,2,13/11/95,20,f,12,The eggs whisked Dan,Non-sensible,edin_semantics,sem_emo_sem_emo,0.856296151760034,2,2,2,1,878623.236374139,62,A
30,2,13/11/95,20,f,13,Ian pushed the button,Sensible,edin_semantics,sem_emo_sem_emo,0.73835940589197,2,1,1,1,878624.718257853,101,A
30,2,13/11/95,20,f,14,The wine stored Leo,Non-sensible,edin_semantics,sem_emo_sem_emo,1.40893363882788,1,2,2,1,878626.870572437,52,A
30,2,13/11/95,20,f,15,Ella mashed the turnip,Sensible,edin_semantics,sem_emo_sem_emo,3.20899605134036,1,1,1,1,878630.822316329,103,A
30,2,13/11/95,20,f,16,Luke read the poster,Sensible,edin_semantics,sem_emo_sem_emo,1.25581564661115,1,1,1,1,878632.821762443,79,A
30,2,13/11/95,20,f,17,Liam mixed the nuts,Sensible,edin_semantics,sem_emo_sem_emo,0.962045794003643,2,1,1,1,878634.527115737,83,A
30,2,13/11/95,20,f,18,Fred served the dessert,Sensible,edin_semantics,sem_emo_sem_emo,0.762315392610617,2,1,1,1,878636.032557101,145,A
30,2,13/11/95,20,f,19,Leo passed the salt,Sensible,edin_semantics,sem_emo_sem_emo,0.844409243552946,2,2,2,1,878637.620293088,118,A
30,2,13/11/95,20,f,20,Ben climbed the stairs,Sensible,edin_semantics,sem_emo_sem_emo,0.99740279559046,1,1,1,1,878639.360926732,143,A
30,2,13/11/95,20,f,21,The shelf dusted Jake,Non-sensible,edin_semantics,sem_emo_sem_emo,0.844841897021979,2,1,1,1,878640.948739371,47,A
30,2,13/11/95,20,f,22,Josh taught the rules,Sensible,edin_semantics,sem_emo_sem_emo,0.950591859873384,2,2,2,1,878642.642315123,90,A
30,2,13/11/95,20,f,23,The plans cancelled Ian,Non-sensible,edin_semantics,sem_emo_sem_emo,0.844466652604751,2,1,1,1,878644.230053355,7,A
30,2,13/11/95,20,f,24,The jar labeled Liz,Non-sensible,edin_semantics,sem_emo_sem_emo,2.12668667535763,1,1,1,1,878647.0998025,61,A
30,2,13/11/95,20,f,25,The bucket lent Max,Non-sensible,edin_semantics,sem_emo_sem_emo,1.00948117498774,1,1,1,1,878648.852207592,19,A
30,2,13/11/95,20,f,26,The lever pulled Hugh,Non-sensible,edin_semantics,sem_emo_sem_emo,0.938483974197879,1,1,1,1,878650.534036911,45,A
30,2,13/11/95,20,f,27,The juice drank Matt,Non-sensible,edin_semantics,sem_emo_sem_emo,0.856274663470685,2,2,2,1,878652.133566156,60,A
30,2,13/11/95,20,f,28,The kettle got Lily,Non-sensible,edin_semantics,sem_emo_sem_emo,1.00936828088015,1,1,1,1,878653.8860123,13,A
30,2,13/11/95,20,f,29,The mirror kissed Max,Non-sensible,edin_semantics,sem_emo_sem_emo,0.762194480514154,2,1,1,1,878655.391445967,23,A
30,2,13/11/95,20,f,30,The garden watered Jeff,Non-sensible,edin_semantics,sem_emo_sem_emo,0.797647378058173,2,2,2,1,878656.932108989,54,A
30,2,13/11/95,20,f,31,Jack posted the gift,Sensible,edin_semantics,sem_emo_sem_emo,1.33852400025353,1,1,1,1,878659.013854215,111,A
30,2,13/11/95,20,f,32,The shirt ironed Josh,Non-sensible,edin_semantics,sem_emo_sem_emo,0.90338194614742,2,1,1,1,878660.660446162,55,A
30,2,13/11/95,20,f,33,Liz weighed the sugar,Sensible,edin_semantics,sem_emo_sem_emo,2.11411278112791,1,1,1,1,878663.518423537,139,A
30,2,13/11/95,20,f,34,The laptop fixed Jen,Non-sensible,edin_semantics,sem_emo_sem_emo,0.761708907783031,2,1,1,1,878665.023831226,37,A
30,2,13/11/95,20,f,35,Joe iced the donut,Sensible,edin_semantics,sem_emo_sem_emo,0.808497713878751,2,1,1,1,878666.576284619,119,A
30,2,13/11/95,20,f,36,The garlic crushed Erin,Non-sensible,edin_semantics,sem_emo_sem_emo,0.738264472223818,2,2,2,1,878668.058266153,6,A
30,2,13/11/95,20,f,37,Lucy cut the ribbon,Sensible,edin_semantics,sem_emo_sem_emo,0.761454896186478,2,1,1,1,878669.563667427,95,A
30,2,13/11/95,20,f,38,The dish served Kate,Non-sensible,edin_semantics,sem_emo_sem_emo,0.92635844880715,2,2,2,1,878671.233718884,70,A
30,2,13/11/95,20,f,39,Jack drank the beer,Sensible,edin_semantics,sem_emo_sem_emo,1.39695756987203,1,1,1,1,878673.374258812,135,A
30,2,13/11/95,20,f,40,Sam sucked the candy,Sensible,edin_semantics,sem_emo_sem_emo,1.86771127860993,1,1,1,1,878675.985243915,87,A
30,2,13/11/95,20,f,41,The ball squeezed Josh,Non-sensible,edin_semantics,sem_emo_sem_emo,0.78539388475474,2,1,1,1,878677.514242289,1,A
30,2,13/11/95,20,f,42,Adam chewed the fat,Sensible,edin_semantics,sem_emo_sem_emo,0.985435706796125,1,2,2,1,878679.243095824,106,A
30,2,13/11/95,20,f,43,The story wrote Ewan,Non-sensible,edin_semantics,sem_emo_sem_emo,1.64411822066177,1,2,2,1,878681.630597877,74,A
30,2,13/11/95,20,f,44,Andy pulled the rope,Sensible,edin_semantics,sem_emo_sem_emo,0.844980128109455,2,2,2,1,878683.218386462,148,A
30,2,13/11/95,20,f,45,Sara jumped the hedge,Sensible,edin_semantics,sem_emo_sem_emo,1.23312747268938,2,2,2,1,878685.194246381,92,A
30,2,13/11/95,20,f,46,Tom grated the carrots,Sensible,edin_semantics,sem_emo_sem_emo,6.39602234528866,1,2,2,1,878692.333274107,140,A
30,2,13/11/95,20,f,47,The fence jumped Jon,Non-sensible,edin_semantics,sem_emo_sem_emo,0.891259627998807,2,1,1,1,878693.96806991,17,A
30,2,13/11/95,20,f,48,The fur stroked Rob,Non-sensible,edin_semantics,sem_emo_sem_emo,0.949421225581318,2,1,1,1,878695.66168062,41,A
30,2,13/11/95,20,f,49,The thread measured Amy,Non-sensible,edin_semantics,sem_emo_sem_emo,0.925665369257331,2,1,1,1,878697.33176896,51,A
30,2,13/11/95,20,f,50,The toffee chewed Ben,Non-sensible,edin_semantics,sem_emo_sem_emo,1.10256519634277,1,1,1,1,878699.178270912,31,A
30,2,13/11/95,20,f,51,Bill trimmed the hair,Sensible,edin_semantics,sem_emo_sem_emo,0.83225100452546,2,1,1,1,878700.754269768,107,A
30,2,13/11/95,20,f,52,Jay squeezed the lemon,Sensible,edin_semantics,sem_emo_sem_emo,1.34976529586129,1,2,2,1,878702.847762068,76,A
30,2,13/11/95,20,f,53,The paper cut Jon,Non-sensible,edin_semantics,sem_emo_sem_emo,1.25525727018248,2,2,2,1,878704.847124794,20,A
30,2,13/11/95,20,f,54,Phil solved the problem,Sensible,edin_semantics,sem_emo_sem_emo,2.1023163163336,1,1,1,1,878707.693422447,109,A
30,2,13/11/95,20,f,55,Tim sniffed the perfume,Sensible,edin_semantics,sem_emo_sem_emo,0.726467045256868,2,1,1,1,878709.163515469,93,A
30,2,13/11/95,20,f,56,The lolly sucked Leah,Non-sensible,edin_semantics,sem_emo_sem_emo,3.30224107496906,1,2,2,1,878713.209449552,12,A
30,2,13/11/95,20,f,57,Jay painted the portrait,Sensible,edin_semantics,sem_emo_sem_emo,3.9957667941926,1,2,2,1,878717.949136745,110,A
30,2,13/11/95,20,f,58,The cheese grated Andy,Non-sensible,edin_semantics,sem_emo_sem_emo,2.84156283829361,1,1,1,1,878721.536279718,65,A
30,2,13/11/95,20,f,59,The gun carried Ryan,Non-sensible,edin_semantics,sem_emo_sem_emo,3.0194771081442,1,1,1,1,878725.299871583,75,A
30,2,13/11/95,20,f,60,The floor cleaned Tim,Non-sensible,edin_semantics,sem_emo_sem_emo,2.5019095770549,1,1,1,1,878728.545962948,5,A
30,2,13/11/95,20,f,61,The hill climbed Luke,Non-sensible,edin_semantics,sem_emo_sem_emo,1.13728941418231,2,2,2,1,878730.42774557,68,A
30,2,13/11/95,20,f,62,Adam watched the opera,Sensible,edin_semantics,sem_emo_sem_emo,4.76018900773488,1,2,2,1,878735.931958891,108,A
30,2,13/11/95,20,f,63,The box lifted Kate,Non-sensible,edin_semantics,sem_emo_sem_emo,1.19607834331691,2,1,1,1,878737.872577268,69,A
30,2,13/11/95,20,f,64,The fruits mixed Jack,Non-sensible,edin_semantics,sem_emo_sem_emo,1.56134828843642,2,2,2,1,878740.177763531,8,A
30,2,13/11/95,20,f,65,Jane licked the plate,Sensible,edin_semantics,sem_emo_sem_emo,1.43174176267348,2,2,2,1,878742.353561358,96,A
30,2,13/11/95,20,f,66,Zoe paid the debt,Sensible,edin_semantics,sem_emo_sem_emo,1.25567003898323,2,2,2,1,878744.353005868,134,A
30,2,13/11/95,20,f,67,The scarf knitted Tom,Non-sensible,edin_semantics,sem_emo_sem_emo,2.94924867735244,1,2,2,1,878748.045993737,66,A
30,2,13/11/95,20,f,68,Ian dented the bowl,Sensible,edin_semantics,sem_emo_sem_emo,6.0416524480097,1,2,2,1,878754.832194237,146,A
30,2,13/11/95,20,f,69,The papers filed Lara,Non-sensible,edin_semantics,sem_emo_sem_emo,3.13695329776965,2,2,2,1,878758.713405654,24,A
30,2,13/11/95,20,f,70,The parcel mailed Rob,Non-sensible,edin_semantics,sem_emo_sem_emo,1.53756549139507,2,2,2,1,878760.995069225,14,A
30,2,13/11/95,20,f,71,Tom offered the sweets,Sensible,edin_semantics,sem_emo_sem_emo,3.96063044900075,1,2,2,1,878765.699526422,84,A
30,2,13/11/95,20,f,72,Beth washed the pan,Sensible,edin_semantics,sem_emo_sem_emo,5.58237801026553,1,2,2,1,878772.027021765,132,A
30,2,13/11/95,20,f,73,Rose built the shed,Sensible,edin_semantics,sem_emo_sem_emo,2.30133086675778,1,1,1,1,878775.07317009,121,A
30,2,13/11/95,20,f,74,The cake iced Mary,Non-sensible,edin_semantics,sem_emo_sem_emo,8.00614438636694,1,2,2,1,878783.823533147,44,A
30,2,13/11/95,20,f,75,The sheets counted Bill,Non-sensible,edin_semantics,sem_emo_sem_emo,2.85455399157945,1,2,2,1,878787.422428325,48,A
30,2,13/11/95,20,f,76,Kate wore the dress,Sensible,edin_semantics,sem_emo_sem_emo,1.25490287260618,2,2,2,1,878789.421836594,100,A
30,2,13/11/95,20,f,77,Dan brushed the hair,Sensible,edin_semantics,sem_emo_sem_emo,2.04324739705771,1,1,1,1,878792.209202917,147,A
30,2,13/11/95,20,f,78,The herbs chopped Phil,Non-sensible,edin_semantics,sem_emo_sem_emo,0.73801719583571,2,1,1,1,878793.691116137,27,A
30,2,13/11/95,20,f,79,Fred lent the car,Sensible,edin_semantics,sem_emo_sem_emo,1.25582783401478,2,2,2,1,878795.690527934,94,A
30,2,13/11/95,20,f,80,Ryan knitted the socks,Sensible,edin_semantics,sem_emo_sem_emo,0.832220856682397,2,1,1,1,878797.266498245,141,A
30,2,13/11/95,20,f,81,Max kicked the door,Sensible,edin_semantics,sem_emo_sem_emo,1.30258905794472,2,2,2,1,878799.312960236,114,A
30,2,13/11/95,20,f,82,Rob measured the curtains,Sensible,edin_semantics,sem_emo_sem_emo,1.20857686805539,1,2,2,1,878801.26533627,126,A
30,2,13/11/95,20,f,83,Eve typed the message,Sensible,edin_semantics,sem_emo_sem_emo,0.926436704932712,2,2,2,1,878802.935422044,124,A
30,2,13/11/95,20,f,84,The museum visited Mary,Non-sensible,edin_semantics,sem_emo_sem_emo,1.06676335353404,1,2,2,1,878804.746594898,16,A
30,2,13/11/95,20,f,85,Liam sliced the onion,Sensible,edin_semantics,sem_emo_sem_emo,0.937798271188512,1,2,2,1,878806.428436405,78,A
30,2,13/11/95,20,f,86,The tomato sliced Liz,Non-sensible,edin_semantics,sem_emo_sem_emo,0.844413412851281,2,1,1,1,878808.016217934,3,A
30,2,13/11/95,20,f,87,Fred chopped the carrots,Sensible,edin_semantics,sem_emo_sem_emo,5.08991208381485,1,2,2,1,878813.849766258,102,A
30,2,13/11/95,20,f,88,The sofa sold Carl,Non-sensible,edin_semantics,sem_emo_sem_emo,1.77277444803622,1,2,2,1,878816.366646803,38,A
30,2,13/11/95,20,f,89,The bushes trimmed Jon,Non-sensible,edin_semantics,sem_emo_sem_emo,2.86621607409325,1,2,2,1,878819.977342615,32,A
30,2,13/11/95,20,f,90,Ben got the radio,Sensible,edin_semantics,sem_emo_sem_emo,1.58414133824408,2,2,2,1,878822.306043872,88,A
30,2,13/11/95,20,f,91,Fred stored the rice,Sensible,edin_semantics,sem_emo_sem_emo,1.27887585759163,1,1,1,1,878824.328971946,127,A
30,2,13/11/95,20,f,92,The room searched Jen,Non-sensible,edin_semantics,sem_emo_sem_emo,1.24314297002275,2,2,2,1,878826.316623519,10,A
30,2,13/11/95,20,f,93,Ian mailed the invite,Sensible,edin_semantics,sem_emo_sem_emo,2.79604409029707,1,1,1,1,878829.856725919,89,A
30,2,13/11/95,20,f,94,The photo took Beth,Non-sensible,edin_semantics,sem_emo_sem_emo,1.0787791920593,2,1,1,1,878831.6796962,53,A
30,2,13/11/95,20,f,95,The trolley pushed Matt,Non-sensible,edin_semantics,sem_emo_sem_emo,1.76076758967247,1,2,2,1,878834.184839934,26,A
30,2,13/11/95,20,f,96,Luke fixed the radio,Sensible,edin_semantics,sem_emo_sem_emo,0.903067638864741,2,2,2,1,878835.831408469,112,A
30,2,13/11/95,20,f,97,The bowl scrubbed Liz,Non-sensible,edin_semantics,sem_emo_sem_emo,1.25620853062719,2,2,2,1,878837.830874467,56,A
30,2,13/11/95,20,f,98,Emma pulled the rope,Sensible,edin_semantics,sem_emo_sem_emo,1.13872688880656,2,2,2,1,878839.712606736,120,A
30,2,13/11/95,20,f,99,The coins polished Jon,Non-sensible,edin_semantics,sem_emo_sem_emo,1.72658891952597,1,1,1,1,878842.182508929,29,A
30,2,13/11/95,20,f,100,The pill swallowed Luke,Non-sensible,edin_semantics,sem_emo_sem_emo,2.03260937891901,1,2,2,1,878844.958098031,22,A
30,2,13/11/95,20,f,101,Anna polished the trophy,Sensible,edin_semantics,sem_emo_sem_emo,1.65623123780824,1,2,2,1,878847.357383398,104,A
30,2,13/11/95,20,f,102,John carried the kettle,Sensible,edin_semantics,sem_emo_sem_emo,2.31491535517853,1,1,1,1,878850.41527142,105,A
30,2,13/11/95,20,f,103,The milk sniffed Phil,Non-sensible,edin_semantics,sem_emo_sem_emo,0.950539261451922,2,2,2,1,878852.108895281,18,A
30,2,13/11/95,20,f,104,The lorry dented Lily,Non-sensible,edin_semantics,sem_emo_sem_emo,3.02043510391377,1,1,1,1,878855.872456035,71,A
30,2,13/11/95,20,f,105,Ryan stroked the blanket,Sensible,edin_semantics,sem_emo_sem_emo,0.879398056655191,2,2,2,1,878857.495517593,116,A
30,2,13/11/95,20,f,106,The number dialed Tom,Non-sensible,edin_semantics,sem_emo_sem_emo,0.762062022462487,2,1,1,1,878859.000929131,63,A
30,2,13/11/95,20,f,107,The potatoes mashed Will,Non-sensible,edin_semantics,sem_emo_sem_emo,1.5026530099567,1,2,2,1,878861.247323898,28,A
30,2,13/11/95,20,f,108,The flour weighed Jen,Non-sensible,edin_semantics,sem_emo_sem_emo,1.16127298295032,2,2,2,1,878863.152617666,64,A
30,2,13/11/95,20,f,109,The towels passed Phil,Non-sensible,edin_semantics,sem_emo_sem_emo,0.808462434448302,2,1,1,1,878864.705100565,43,A
30,2,13/11/95,20,f,110,Alex dusted the house,Sensible,edin_semantics,sem_emo_sem_emo,1.44357286533341,1,2,2,1,878866.892675294,122,A
30,2,13/11/95,20,f,111,Kate hugged the pillow,Sensible,edin_semantics,sem_emo_sem_emo,5.84250383591279,1,2,2,1,878873.478992087,86,A
30,2,13/11/95,20,f,112,Owen swallowed the gum,Sensible,edin_semantics,sem_emo_sem_emo,1.03204779524822,2,1,1,1,878875.254899345,97,A
30,2,13/11/95,20,f,113,Ian labeled the box,Sensible,edin_semantics,sem_emo_sem_emo,1.05596369178966,2,2,2,1,878877.054368743,136,A
30,2,13/11/95,20,f,114,Joe entered the office,Sensible,edin_semantics,sem_emo_sem_emo,0.832600911846384,2,1,1,1,878878.630353807,133,A
30,2,13/11/95,20,f,115,The lesson taught Eve,Non-sensible,edin_semantics,sem_emo_sem_emo,0.762127770343795,2,1,1,1,878880.135760534,15,A
30,2,13/11/95,20,f,116,Lucy counted the shoes,Sensible,edin_semantics,sem_emo_sem_emo,1.58543865743559,1,1,1,1,878882.464515992,123,A
30,2,13/11/95,20,f,117,Ian filed the report,Sensible,edin_semantics,sem_emo_sem_emo,2.67945245106239,1,1,1,1,878885.886982804,99,A
30,2,13/11/95,20,f,118,The house built Kate,Non-sensible,edin_semantics,sem_emo_sem_emo,4.37223602039739,1,2,2,1,878891.003099775,46,A
30,2,13/11/95,20,f,119,Lucy wiped the desk,Sensible,edin_semantics,sem_emo_sem_emo,0.86753552313894,2,1,1,1,878892.614377056,115,A
30,2,13/11/95,20,f,120,The folder carried Dan,Non-sensible,edin_semantics,sem_emo_sem_emo,1.53804817749187,1,2,2,1,878894.896066284,30,A
30,2,13/11/95,20,f,121,Josh scrubbed the pot,Sensible,edin_semantics,sem_emo_sem_emo,0.773269321536645,2,1,1,1,878896.413257288,131,A
30,2,13/11/95,20,f,122,The book read Sean,Non-sensible,edin_semantics,sem_emo_sem_emo,1.33812245668378,2,2,2,1,878898.495037473,4,A
30,2,13/11/95,20,f,123,Leo carried the wallet,Sensible,edin_semantics,sem_emo_sem_emo,1.36156208149623,1,2,2,1,878900.600255038,150,A
30,2,13/11/95,20,f,124,Erin punched the monitor,Sensible,edin_semantics,sem_emo_sem_emo,1.2910337758949,1,1,1,1,878902.634910942,125,A
30,2,13/11/95,20,f,125,The spoon licked Will,Non-sensible,edin_semantics,sem_emo_sem_emo,1.9729721408803,1,1,1,1,878905.351742224,21,A
30,2,13/11/95,20,f,126,The teeth brushed Carl,Non-sensible,edin_semantics,sem_emo_sem_emo,1.4087982942583,1,2,2,1,878907.504033075,72,A
30,2,13/11/95,20,f,127,Mike ate the steak,Sensible,edin_semantics,sem_emo_sem_emo,0.996916902251542,2,2,2,1,878909.244701357,142,A
30,2,13/11/95,20,f,128,The room tidied Sam,Non-sensible,edin_semantics,sem_emo_sem_emo,0.867625004495494,2,2,2,1,878910.855969657,2,A
30,2,13/11/95,20,f,129,Josh crushed the ice,Sensible,edin_semantics,sem_emo_sem_emo,1.51420444343239,1,1,1,1,878913.114133949,81,A
30,2,13/11/95,20,f,130,Jay sold the bed,Sensible,edin_semantics,sem_emo_sem_emo,0.91424446948804,2,1,1,1,878914.772470725,113,A
30,2,13/11/95,20,f,131,Max searched the internet,Sensible,edin_semantics,sem_emo_sem_emo,1.53775856585708,1,1,1,1,878917.05417214,85,A
30,2,13/11/95,20,f,132,Alex wrote the report,Sensible,edin_semantics,sem_emo_sem_emo,2.91400585253723,1,1,1,1,878920.711855606,149,A
30,2,13/11/95,20,f,133,The ham ate Tim,Non-sensible,edin_semantics,sem_emo_sem_emo,1.06759466417134,2,1,1,1,878922.523094849,67,A
30,2,13/11/95,20,f,134,The table wiped Beth,Non-sensible,edin_semantics,sem_emo_sem_emo,1.64375259785447,2,2,2,1,878924.910588242,40,A
30,2,13/11/95,20,f,135,Tom whisked the cream,Sensible,edin_semantics,sem_emo_sem_emo,2.07780772598926,1,1,1,1,878927.7332641,137,A
30,2,13/11/95,20,f,136,Luke watered the plants,Sensible,edin_semantics,sem_emo_sem_emo,1.46660228713881,2,1,1,1,878929.944401931,129,A
30,2,13/11/95,20,f,137,The letter typed Phil,Non-sensible,edin_semantics,sem_emo_sem_emo,1.1141948858276,2,1,1,1,878931.802667635,49,A
30,2,13/11/95,20,f,138,The jumper wore Joe,Non-sensible,edin_semantics,sem_emo_sem_emo,1.1613149974728,2,1,1,1,878933.70793767,25,A
30,2,13/11/95,20,f,139,The puzzle solved Joe,Non-sensible,edin_semantics,sem_emo_sem_emo,1.06662191520445,2,2,2,1,878935.519161839,34,A
30,2,13/11/95,20,f,140,Tom visited the hospital,Sensible,edin_semantics,sem_emo_sem_emo,1.30213780258782,2,1,1,1,878937.565626716,91,A
30,2,13/11/95,20,f,141,Hugh kissed the rose,Sensible,edin_semantics,sem_emo_sem_emo,2.46680466260295,1,2,2,1,878940.776429393,98,A
30,2,13/11/95,20,f,142,The room entered Ryan,Non-sensible,edin_semantics,sem_emo_sem_emo,1.02008038561326,2,2,2,1,878942.540621648,58,A
30,2,13/11/95,20,f,143,Hugh dialed the hotline,Sensible,edin_semantics,sem_emo_sem_emo,2.14886329823639,1,2,2,1,878945.433860771,138,A
30,2,13/11/95,20,f,144,Tim took the ticket,Sensible,edin_semantics,sem_emo_sem_emo,3.87815622228663,1,2,2,1,878950.055999613,128,A
30,2,13/11/95,20,f,145,Erin tidied the garage,Sensible,edin_semantics,sem_emo_sem_emo,0.8433441267116,2,1,1,1,878951.643737524,77,A
30,2,13/11/95,20,f,146,The movie watched Ella,Non-sensible,edin_semantics,sem_emo_sem_emo,1.53730987617746,1,1,1,1,878953.925426111,33,A
30,2,13/11/95,20,f,147,The bill paid Mike,Non-sensible,edin_semantics,sem_emo_sem_emo,0.843761064927094,2,1,1,1,878955.513166909,59,A
30,2,13/11/95,20,f,148,Amy lifted the crate,Sensible,edin_semantics,sem_emo_sem_emo,0.914120670873672,2,2,2,1,878957.171551793,144,A
30,2,13/11/95,20,f,149,The bike kicked Matt,Non-sensible,edin_semantics,sem_emo_sem_emo,0.93776523694396,2,1,1,1,878958.853369887,39,A
30,2,13/11/95,20,f,150,The picture painted Ryan,Non-sensible,edin_semantics,sem_emo_sem_emo,0.937913731089793,2,1,1,1,878960.535189585,35,A
30,2,13/11/95,20,f,151,The portrait painted Jay,Non-sensible,edin_semantics,sem_emo_sem_emo,1.17843864974566,2,2,2,1,878977.047890485,110,B
30,2,13/11/95,20,f,152,The poster read Luke,Non-sensible,edin_semantics,sem_emo_sem_emo,2.70128975028638,1,1,1,1,878980.493905967,79,B
30,2,13/11/95,20,f,153,Andy grated the cheese,Sensible,edin_semantics,sem_emo_sem_emo,2.51288082497194,1,1,1,1,878983.751771346,65,B
30,2,13/11/95,20,f,154,Jane punched the wall,Sensible,edin_semantics,sem_emo_sem_emo,1.51311302743852,1,2,2,1,878986.009951353,50,B
30,2,13/11/95,20,f,155,The pillow hugged Kate,Non-sensible,edin_semantics,sem_emo_sem_emo,1.09043646370992,2,2,2,1,878987.844651709,86,B
30,2,13/11/95,20,f,156,The steak ate Mike,Non-sensible,edin_semantics,sem_emo_sem_emo,1.03129121277016,2,2,2,1,878989.620611565,142,B
30,2,13/11/95,20,f,157,The hotline dialed Hugh,Non-sensible,edin_semantics,sem_emo_sem_emo,1.11274522379972,2,2,2,1,878991.47887342,138,B
30,2,13/11/95,20,f,158,Sam tidied the room,Sensible,edin_semantics,sem_emo_sem_emo,0.937548108282499,2,2,2,1,878993.160739302,2,B
30,2,13/11/95,20,f,159,The lemon squeezed Jay,Non-sensible,edin_semantics,sem_emo_sem_emo,1.86611921607982,1,2,2,1,878995.771690088,76,B
30,2,13/11/95,20,f,160,Amy measured the thread,Sensible,edin_semantics,sem_emo_sem_emo,2.13687151367776,1,1,1,1,878998.653191117,51,B
30,2,13/11/95,20,f,161,The fat chewed Adam,Non-sensible,edin_semantics,sem_emo_sem_emo,1.23086381901521,2,2,1,0,879000.629095295,106,B
30,2,13/11/95,20,f,162,Phil chopped the herbs,Sensible,edin_semantics,sem_emo_sem_emo,1.65471678983886,2,1,1,1,879003.028341215,27,B
30,2,13/11/95,20,f,163,The rules taught Josh,Non-sensible,edin_semantics,sem_emo_sem_emo,1.00773548672441,2,2,1,0,879004.780764908,90,B
30,2,13/11/95,20,f,164,Liz labeled the jar,Sensible,edin_semantics,sem_emo_sem_emo,0.784204969415441,2,1,1,1,879006.309735058,61,B
30,2,13/11/95,20,f,165,Luke swallowed the pill,Sensible,edin_semantics,sem_emo_sem_emo,5.3829648027895,1,2,2,1,879012.437298587,22,B
30,2,13/11/95,20,f,166,The sugar weighed Liz,Non-sensible,edin_semantics,sem_emo_sem_emo,0.972587274736725,2,1,1,1,879014.154413387,139,B
30,2,13/11/95,20,f,167,Mary visited the museum,Sensible,edin_semantics,sem_emo_sem_emo,0.913395839859732,2,2,2,1,879015.812765558,16,B
30,2,13/11/95,20,f,168,The office entered Joe,Non-sensible,edin_semantics,sem_emo_sem_emo,1.73700243234634,1,1,1,1,879018.294376017,133,B
30,2,13/11/95,20,f,169,The monitor punched Erin,Non-sensible,edin_semantics,sem_emo_sem_emo,2.26613550877664,1,1,1,1,879021.305215769,125,B
30,2,13/11/95,20,f,170,The curtains measured Rob,Non-sensible,edin_semantics,sem_emo_sem_emo,2.46595442935359,1,2,2,1,879024.51606046,126,B
30,2,13/11/95,20,f,171,The hedge jumped Sara,Non-sensible,edin_semantics,sem_emo_sem_emo,0.854721408337355,2,2,2,1,879026.115589705,92,B
30,2,13/11/95,20,f,172,Beth wiped the table,Sensible,edin_semantics,sem_emo_sem_emo,0.878256287425756,2,2,2,1,879027.738573327,40,B
30,2,13/11/95,20,f,173,The box labeled Ian,Non-sensible,edin_semantics,sem_emo_sem_emo,2.85404500621371,1,2,2,1,879031.337489673,136,B
30,2,13/11/95,20,f,174,Josh squeezed the ball,Sensible,edin_semantics,sem_emo_sem_emo,1.30199027061462,1,1,1,1,879033.383928251,1,B
30,2,13/11/95,20,f,175,The rope pulled Emma,Non-sensible,edin_semantics,sem_emo_sem_emo,2.36054218641948,1,2,2,1,879036.488887634,120,B
30,2,13/11/95,20,f,176,The radio got Ben,Non-sensible,edin_semantics,sem_emo_sem_emo,1.26681575947441,1,2,2,1,879038.50004875,88,B
30,2,13/11/95,20,f,177,Ian cancelled the plans,Sensible,edin_semantics,sem_emo_sem_emo,0.889984438545071,2,1,1,1,879040.134852571,7,B
30,2,13/11/95,20,f,178,The ticket took Tim,Non-sensible,edin_semantics,sem_emo_sem_emo,3.04241672775242,1,2,2,1,879043.921958147,128,B
30,2,13/11/95,20,f,179,Bill counted the sheets,Sensible,edin_semantics,sem_emo_sem_emo,0.807565375929698,2,2,2,1,879045.474429821,48,B
30,2,13/11/95,20,f,180,The button pushed Ian,Non-sensible,edin_semantics,sem_emo_sem_emo,1.16076624253765,1,1,1,1,879047.379737059,101,B
30,2,13/11/95,20,f,181,Mark washed the dishes,Sensible,edin_semantics,sem_emo_sem_emo,2.17180997366086,1,1,1,1,879050.296547944,57,B
30,2,13/11/95,20,f,182,The donut iced Joe,Non-sensible,edin_semantics,sem_emo_sem_emo,1.1370251395274,1,1,1,1,879052.178359111,119,B
30,2,13/11/95,20,f,183,Jon trimmed the bushes,Sensible,edin_semantics,sem_emo_sem_emo,0.713347603334114,2,2,2,1,879053.636706663,32,B
30,2,13/11/95,20,f,184,Matt drank the juice,Sensible,edin_semantics,sem_emo_sem_emo,1.91341251740232,1,2,2,1,879056.294764731,60,B
30,2,13/11/95,20,f,185,The plants watered Luke,Non-sensible,edin_semantics,sem_emo_sem_emo,2.10192150773946,1,1,1,1,879059.140933775,129,B
30,2,13/11/95,20,f,186,The rose kissed Hugh,Non-sensible,edin_semantics,sem_emo_sem_emo,1.39526383846533,1,2,2,1,879061.281494871,98,B
30,2,13/11/95,20,f,187,Tim cleaned the floor,Sensible,edin_semantics,sem_emo_sem_emo,0.960876763332635,2,1,1,1,879062.986846562,5,B
30,2,13/11/95,20,f,188,The opera watched Adam,Non-sensible,edin_semantics,sem_emo_sem_emo,1.23104181955568,1,2,2,1,879064.962708405,108,B
30,2,13/11/95,20,f,189,Will mashed the potatoes,Sensible,edin_semantics,sem_emo_sem_emo,1.58409002271947,1,2,2,1,879067.291426018,28,B
30,2,13/11/95,20,f,190,Lara filed the papers,Sensible,edin_semantics,sem_emo_sem_emo,0.960494783706963,2,2,2,1,879068.996799197,24,B
30,2,13/11/95,20,f,191,The report wrote Alex,Non-sensible,edin_semantics,sem_emo_sem_emo,0.795413872110657,2,1,1,1,879070.537523477,149,B
30,2,13/11/95,20,f,192,The sweets offered Tom,Non-sensible,edin_semantics,sem_emo_sem_emo,0.913503602379933,2,2,2,1,879072.195842934,84,B
30,2,13/11/95,20,f,193,Liz sliced the tomato,Sensible,edin_semantics,sem_emo_sem_emo,0.878120622131974,2,1,1,1,879073.818873061,3,B
30,2,13/11/95,20,f,194,The hair brushed Dan,Non-sensible,edin_semantics,sem_emo_sem_emo,0.902128886547871,2,1,1,1,879075.465457952,147,B
30,2,13/11/95,20,f,195,Liz scrubbed the bowl,Sensible,edin_semantics,sem_emo_sem_emo,0.855143157416023,2,2,2,1,879077.064960898,56,B
30,2,13/11/95,20,f,196,Matt pushed the trolley,Sensible,edin_semantics,sem_emo_sem_emo,2.78379893582314,1,2,2,1,879080.593347975,26,B
30,2,13/11/95,20,f,197,The debt paid Zoe,Non-sensible,edin_semantics,sem_emo_sem_emo,1.01949795510154,2,2,2,1,879082.357496934,134,B
30,2,13/11/95,20,f,198,The rice stored Fred,Non-sensible,edin_semantics,sem_emo_sem_emo,1.47828585805837,1,1,1,1,879084.580366123,127,B
30,2,13/11/95,20,f,199,The shed built Rose,Non-sensible,edin_semantics,sem_emo_sem_emo,2.23097575083375,1,1,1,1,879087.555965295,121,B
30,2,13/11/95,20,f,200,The blanket stroked Ryan,Non-sensible,edin_semantics,sem_emo_sem_emo,1.10171945323236,2,2,2,1,879089.402436779,116,B
30,2,13/11/95,20,f,201,Mike paid the bill,Sensible,edin_semantics,sem_emo_sem_emo,2.18372927501332,1,1,1,1,879092.330987682,59,B
30,2,13/11/95,20,f,202,Carl sold the sofa,Sensible,edin_semantics,sem_emo_sem_emo,4.300990901771,1,2,2,1,879097.376694052,38,B
30,2,13/11/95,20,f,203,The pan washed Beth,Non-sensible,edin_semantics,sem_emo_sem_emo,1.14944893599022,2,2,2,1,879099.2700868,132,B
30,2,13/11/95,20,f,204,The dress wore Kate,Non-sensible,edin_semantics,sem_emo_sem_emo,3.431450226577,1,2,2,1,879103.445308611,100,B
30,2,13/11/95,20,f,205,The onion sliced Liam,Non-sensible,edin_semantics,sem_emo_sem_emo,3.83145850128494,1,2,2,1,879108.020408805,78,B
30,2,13/11/95,20,f,206,Ben chewed the toffee,Sensible,edin_semantics,sem_emo_sem_emo,2.92505856382195,1,1,1,1,879111.689913752,31,B
30,2,13/11/95,20,f,207,Kate lifted the box,Sensible,edin_semantics,sem_emo_sem_emo,1.93672738142777,1,1,1,1,879114.371422991,69,B
30,2,13/11/95,20,f,208,Jack mixed the fruits,Sensible,edin_semantics,sem_emo_sem_emo,1.11358647688758,2,2,2,1,879116.229708259,8,B
30,2,13/11/95,20,f,209,The salt passed Leo,Non-sensible,edin_semantics,sem_emo_sem_emo,1.41942027618643,2,2,2,1,879118.393746183,118,B
30,2,13/11/95,20,f,210,Phil sniffed the milk,Sensible,edin_semantics,sem_emo_sem_emo,2.28980958112516,1,2,2,1,879121.428173413,18,B
30,2,13/11/95,20,f,211,Josh ironed the shirt,Sensible,edin_semantics,sem_emo_sem_emo,1.0313919193577,2,1,1,1,879123.204083557,55,B
30,2,13/11/95,20,f,212,Tim pulled the handle,Sensible,edin_semantics,sem_emo_sem_emo,2.31351091479883,1,1,1,1,879126.261978955,73,B
30,2,13/11/95,20,f,213,Ewan wrote the story,Sensible,edin_semantics,sem_emo_sem_emo,4.48878436209634,1,2,2,1,879131.49571612,74,B
30,2,13/11/95,20,f,214,Eve taught the lesson,Sensible,edin_semantics,sem_emo_sem_emo,1.39600919582881,1,1,1,1,879133.636249314,15,B
30,2,13/11/95,20,f,215,Leah sucked the lolly,Sensible,edin_semantics,sem_emo_sem_emo,1.37141368992161,2,2,2,1,879135.753242817,12,B
30,2,13/11/95,20,f,216,Matt kicked the bike,Sensible,edin_semantics,sem_emo_sem_emo,1.38359630375635,1,1,1,1,879137.882043369,39,B
30,2,13/11/95,20,f,217,Jon cut the paper,Sensible,edin_semantics,sem_emo_sem_emo,1.18411414104048,2,2,2,1,879139.810869772,20,B
30,2,13/11/95,20,f,218,The gum swallowed Owen,Non-sensible,edin_semantics,sem_emo_sem_emo,0.97194647276774,2,1,1,1,879141.528025624,97,B
30,2,13/11/95,20,f,219,The problem solved Phil,Non-sensible,edin_semantics,sem_emo_sem_emo,0.995504443882965,2,1,1,1,879143.268662475,109,B
30,2,13/11/95,20,f,220,Kate built the house,Sensible,edin_semantics,sem_emo_sem_emo,1.11330199672375,2,2,2,1,879145.126932028,46,B
30,2,13/11/95,20,f,221,Mary iced the cake,Sensible,edin_semantics,sem_emo_sem_emo,1.20766986696981,2,2,2,1,879147.079310949,44,B
30,2,13/11/95,20,f,222,The rope pulled Andy,Non-sensible,edin_semantics,sem_emo_sem_emo,2.84198971895967,1,2,2,1,879150.666427301,148,B
30,2,13/11/95,20,f,223,The desk wiped Lucy,Non-sensible,edin_semantics,sem_emo_sem_emo,1.61886972538196,1,1,1,1,879153.030453488,115,B
30,2,13/11/95,20,f,224,Kate served the dish,Sensible,edin_semantics,sem_emo_sem_emo,1.56025655171834,1,2,2,1,879155.335637505,70,B
30,2,13/11/95,20,f,225,Tom dialed the number,Sensible,edin_semantics,sem_emo_sem_emo,0.995515669230372,2,1,1,1,879157.076299693,63,B
30,2,13/11/95,20,f,226,The bath cleaned Jack,Non-sensible,edin_semantics,sem_emo_sem_emo,1.26645623042714,2,2,2,1,879159.087434188,80,B
30,2,13/11/95,20,f,227,The bed sold Jay,Non-sensible,edin_semantics,sem_emo_sem_emo,6.13526694313623,1,1,1,1,879165.967718078,113,B
30,2,13/11/95,20,f,228,The trousers ironed Eve,Non-sensible,edin_semantics,sem_emo_sem_emo,3.18330624303781,1,2,2,1,879169.89596237,130,B
30,2,13/11/95,20,f,229,Joe wore the jumper,Sensible,edin_semantics,sem_emo_sem_emo,8.86392547970172,1,1,1,1,879179.504879781,25,B
30,2,13/11/95,20,f,230,Will licked the spoon,Sensible,edin_semantics,sem_emo_sem_emo,1.03112764470279,2,1,1,1,879181.280813979,21,B
30,2,13/11/95,20,f,231,The message typed Eve,Non-sensible,edin_semantics,sem_emo_sem_emo,1.25461550604086,1,2,2,1,879183.28022353,124,B
30,2,13/11/95,20,f,232,Ryan carried the gun,Sensible,edin_semantics,sem_emo_sem_emo,9.67550853639841,1,1,1,1,879193.700591539,75,B
30,2,13/11/95,20,f,233,Jen fixed the laptop,Sensible,edin_semantics,sem_emo_sem_emo,1.2429033908993,2,1,1,1,879195.688223548,37,B
30,2,13/11/95,20,f,234,The invite mailed Ian,Non-sensible,edin_semantics,sem_emo_sem_emo,11.6869454721455,1,1,1,1,879208.119817779,89,B
30,2,13/11/95,20,f,235,Erin crushed the garlic,Sensible,edin_semantics,sem_emo_sem_emo,1.00749622832518,2,2,2,1,879209.872210683,6,B
30,2,13/11/95,20,f,236,Jake dusted the shelf,Sensible,edin_semantics,sem_emo_sem_emo,0.796068144380115,2,1,1,1,879211.412942981,47,B
30,2,13/11/95,20,f,237,The hospital visited Tom,Non-sensible,edin_semantics,sem_emo_sem_emo,0.890156666166149,2,1,1,1,879213.04774584,91,B
30,2,13/11/95,20,f,238,Rob stroked the fur,Sensible,edin_semantics,sem_emo_sem_emo,5.80608588678297,1,1,1,1,879219.598730968,41,B
30,2,13/11/95,20,f,239,The bowl dented Ian,Non-sensible,edin_semantics,sem_emo_sem_emo,1.01932701037731,2,2,2,1,879221.362880568,146,B
30,2,13/11/95,20,f,240,Dan whisked the eggs,Sensible,edin_semantics,sem_emo_sem_emo,0.807729906169698,2,2,2,1,879222.915401954,62,B
30,2,13/11/95,20,f,241,Jeff watered the garden,Sensible,edin_semantics,sem_emo_sem_emo,0.806349519989453,2,2,2,1,879224.467838028,54,B
30,2,13/11/95,20,f,242,The wallet carried Leo,Non-sensible,edin_semantics,sem_emo_sem_emo,1.25419215334114,1,2,2,1,879226.46726554,150,B
30,2,13/11/95,20,f,243,The internet searched Max,Non-sensible,edin_semantics,sem_emo_sem_emo,0.842854705406353,2,1,1,1,879228.055002489,85,B
30,2,13/11/95,20,f,244,The party cancelled Phil,Non-sensible,edin_semantics,sem_emo_sem_emo,0.807273198501207,2,2,2,1,879229.607487954,82,B
30,2,13/11/95,20,f,245,Max lent the bucket,Sensible,edin_semantics,sem_emo_sem_emo,0.807384168147109,2,1,1,1,879231.159955137,19,B
30,2,13/11/95,20,f,246,Carl brushed the teeth,Sensible,edin_semantics,sem_emo_sem_emo,0.783735753619112,2,2,2,1,879232.688947417,72,B
30,2,13/11/95,20,f,247,Rob mailed the parcel,Sensible,edin_semantics,sem_emo_sem_emo,1.11347262060735,1,2,2,1,879234.547184256,14,B
30,2,13/11/95,20,f,248,The door kicked Max,Non-sensible,edin_semantics,sem_emo_sem_emo,1.25385379197542,1,2,2,1,879236.546578733,114,B
30,2,13/11/95,20,f,249,The ribbon cut Lucy,Non-sensible,edin_semantics,sem_emo_sem_emo,0.81910654634703,2,1,1,1,879238.110811272,95,B
30,2,13/11/95,20,f,250,Hugh pulled the lever,Sensible,edin_semantics,sem_emo_sem_emo,3.5363772175042,1,1,1,1,879242.391911976,45,B
30,2,13/11/95,20,f,251,Tom knitted the scarf,Sensible,edin_semantics,sem_emo_sem_emo,0.749218401266262,2,2,2,1,879243.885564573,66,B
30,2,13/11/95,20,f,252,The hair trimmed Bill,Non-sensible,edin_semantics,sem_emo_sem_emo,2.58350887498818,1,1,1,1,879247.214015346,107,B
30,2,13/11/95,20,f,253,The candy sucked Sam,Non-sensible,edin_semantics,sem_emo_sem_emo,3.50122643972281,1,1,1,1,879251.459816457,87,B
30,2,13/11/95,20,f,254,The crate lifted Amy,Non-sensible,edin_semantics,sem_emo_sem_emo,5.38260046287905,1,2,2,1,879257.587349197,144,B
30,2,13/11/95,20,f,255,The church described Erin,Non-sensible,edin_semantics,sem_emo_sem_emo,1.08979181316681,1,1,1,1,879259.422071683,117,B
30,2,13/11/95,20,f,256,Tim ate the ham,Sensible,edin_semantics,sem_emo_sem_emo,0.937390954582952,2,1,1,1,879261.103967071,67,B
30,2,13/11/95,20,f,257,Erin posted the card,Sensible,edin_semantics,sem_emo_sem_emo,3.00696447165683,1,2,2,1,879264.855737134,36,B
30,2,13/11/95,20,f,258,Ryan entered the room,Sensible,edin_semantics,sem_emo_sem_emo,2.52491237886716,1,2,2,1,879268.125361133,58,B
30,2,13/11/95,20,f,259,The turnip mashed Ella,Non-sensible,edin_semantics,sem_emo_sem_emo,1.47806039056741,1,1,1,1,879270.348287089,103,B
30,2,13/11/95,20,f,260,The report filed Ian,Non-sensible,edin_semantics,sem_emo_sem_emo,0.890413885004818,2,1,1,1,879271.983004636,99,B
30,2,13/11/95,20,f,261,The perfume sniffed Tim,Non-sensible,edin_semantics,sem_emo_sem_emo,0.748740525916219,2,1,2,0,879273.476716887,93,B
30,2,13/11/95,20,f,262,Joe solved the puzzle,Sensible,edin_semantics,sem_emo_sem_emo,1.23148056690115,1,2,2,1,879275.452551149,34,B
30,2,13/11/95,20,f,263,The gift posted Jack,Non-sensible,edin_semantics,sem_emo_sem_emo,0.924628155189566,2,1,1,1,879277.122643337,111,B
30,2,13/11/95,20,f,264,The garage tidied Erin,Non-sensible,edin_semantics,sem_emo_sem_emo,4.08915004902519,1,1,1,1,879281.95654702,77,B
30,2,13/11/95,20,f,265,Matt offered the money,Sensible,edin_semantics,sem_emo_sem_emo,2.41820506169461,1,1,1,1,879285.120279618,9,B
30,2,13/11/95,20,f,266,Beth took the photo,Sensible,edin_semantics,sem_emo_sem_emo,1.12474502623081,2,1,1,1,879286.99029881,53,B
30,2,13/11/95,20,f,267,Ella watched the movie,Sensible,edin_semantics,sem_emo_sem_emo,4.12404008000158,1,1,1,1,879291.8594373,33,B
30,2,13/11/95,20,f,268,The radio fixed Luke,Non-sensible,edin_semantics,sem_emo_sem_emo,1.83093508332968,1,2,2,1,879294.435106454,112,B
30,2,13/11/95,20,f,269,The socks knitted Ryan,Non-sensible,edin_semantics,sem_emo_sem_emo,1.13664957426954,2,1,1,1,879296.316897094,141,B
30,2,13/11/95,20,f,270,Sean read the book,Sensible,edin_semantics,sem_emo_sem_emo,1.53706644847989,2,2,2,1,879298.5985937,4,B
30,2,13/11/95,20,f,271,The nuts mixed Liam,Non-sensible,edin_semantics,sem_emo_sem_emo,1.183618305251,2,1,2,0,879300.52745474,83,B
30,2,13/11/95,20,f,272,Phil passed the towels,Sensible,edin_semantics,sem_emo_sem_emo,1.03107344266027,2,1,1,1,879302.303352055,43,B
30,2,13/11/95,20,f,273,Jen weighed the flour,Sensible,edin_semantics,sem_emo_sem_emo,1.5954323457554,1,2,2,1,879304.643829571,64,B
30,2,13/11/95,20,f,274,The stairs climbed Ben,Non-sensible,edin_semantics,sem_emo_sem_emo,1.4893196466146,1,1,1,1,879306.878447117,143,B
30,2,13/11/95,20,f,275,Jon polished the coins,Sensible,edin_semantics,sem_emo_sem_emo,0.713516944437288,2,1,1,1,879308.336819685,29,B
30,2,13/11/95,20,f,276,John described the pen,Sensible,edin_semantics,sem_emo_sem_emo,0.854604665539227,2,2,2,1,879309.936363042,42,B
30,2,13/11/95,20,f,277,The trophy polished Anna,Non-sensible,edin_semantics,sem_emo_sem_emo,1.03063790267333,2,2,2,1,879311.712295315,104,B
30,2,13/11/95,20,f,278,The kettle carried John,Non-sensible,edin_semantics,sem_emo_sem_emo,4.21842206211295,1,1,1,1,879316.67551912,105,B
30,2,13/11/95,20,f,279,Dan carried the folder,Sensible,edin_semantics,sem_emo_sem_emo,2.32495298224967,1,2,2,1,879319.745186609,30,B
30,2,13/11/95,20,f,280,Leo stored the wine,Sensible,edin_semantics,sem_emo_sem_emo,1.57192280353047,1,2,2,1,879322.062153941,52,B
30,2,13/11/95,20,f,281,Luke climbed the hill,Sensible,edin_semantics,sem_emo_sem_emo,4.3119496415602,1,2,2,1,879327.119448307,68,B
30,2,13/11/95,20,f,282,Jen searched the room,Sensible,edin_semantics,sem_emo_sem_emo,2.19544748368207,2,2,1,0,879330.059732172,10,B
30,2,13/11/95,20,f,283,Ryan painted the picture,Sensible,edin_semantics,sem_emo_sem_emo,2.60716370411683,1,1,1,1,879333.411703712,35,B
30,2,13/11/95,20,f,284,Max kissed the mirror,Sensible,edin_semantics,sem_emo_sem_emo,0.807772562140599,2,1,1,1,879334.964150049,23,B
30,2,13/11/95,20,f,285,The car lent Fred,Non-sensible,edin_semantics,sem_emo_sem_emo,3.65348072850611,1,2,2,1,879339.362813538,94,B
30,2,13/11/95,20,f,286,Lily got the kettle,Sensible,edin_semantics,sem_emo_sem_emo,1.34839324839413,2,1,1,1,879341.456312252,13,B
30,2,13/11/95,20,f,287,The shoes counted Lucy,Non-sensible,edin_semantics,sem_emo_sem_emo,6.9818256633589,1,1,1,1,879349.183406629,123,B
30,2,13/11/95,20,f,288,The dessert served Fred,Non-sensible,edin_semantics,sem_emo_sem_emo,0.8190860201139,2,1,1,1,879350.747645582,145,B
30,2,13/11/95,20,f,289,The carrots chopped Fred,Non-sensible,edin_semantics,sem_emo_sem_emo,1.00676273787394,2,2,2,1,879352.500064465,102,B
30,2,13/11/95,20,f,290,The house dusted Alex,Non-sensible,edin_semantics,sem_emo_sem_emo,6.09994329640176,1,2,2,1,879359.345099116,122,B
30,2,13/11/95,20,f,291,The cream whisked Tom,Non-sensible,edin_semantics,sem_emo_sem_emo,0.678304267348722,2,1,1,1,879360.768182996,137,B
30,2,13/11/95,20,f,292,Amy hugged the tree,Sensible,edin_semantics,sem_emo_sem_emo,0.725239643245004,2,1,1,1,879362.238341445,11,B
30,2,13/11/95,20,f,293,Jon jumped the fence,Sensible,edin_semantics,sem_emo_sem_emo,1.38396192644723,1,1,1,1,879364.36710319,17,B
30,2,13/11/95,20,f,294,The pot scrubbed Josh,Non-sensible,edin_semantics,sem_emo_sem_emo,0.726231635431759,2,1,1,1,879365.837239831,131,B
30,2,13/11/95,20,f,295,The ice crushed Josh,Non-sensible,edin_semantics,sem_emo_sem_emo,0.926020408165641,2,1,1,1,879367.507340999,81,B
30,2,13/11/95,20,f,296,The plate licked Jane,Non-sensible,edin_semantics,sem_emo_sem_emo,1.1736698388122,1,2,2,1,879369.424433798,96,B
30,2,13/11/95,20,f,297,Lily dented the lorry,Sensible,edin_semantics,sem_emo_sem_emo,2.66649272863287,1,1,1,1,879372.835174383,71,B
30,2,13/11/95,20,f,298,The beer drank Jack,Non-sensible,edin_semantics,sem_emo_sem_emo,1.34875438106246,1,1,1,1,879374.928625631,135,B
30,2,13/11/95,20,f,299,Phil typed the letter,Sensible,edin_semantics,sem_emo_sem_emo,2.0539162044879,1,1,1,1,879377.727803813,49,B
30,2,13/11/95,20,f,300,The carrots grated Tom,Non-sensible,edin_semantics,sem_emo_sem_emo,1.01890590286348,2,2,2,1,879379.491988693,140,B
