subject_column,AssignedList_column,subject_dob_column,subject_age_column,subject_gender_column,trialnum_column,Stim_column,Type_column,Experiment_column,OrderGroup_column,ReactionTime_column,StimSide_column,StimPosition_column,Response_column,Valid_column,TrialEndSecs_column,PairID_column,List_column
31,3,21/7/91,21,f,1,Carl brushed the teeth,Sensible,edin_semantics,emo_sem_emo_sem,1.61371252045501,1,2,2,1,956179.743195889,72,B
31,3,21/7/91,21,f,2,Mary iced the cake,Sensible,edin_semantics,emo_sem_emo_sem,1.19579514604993,1,2,2,1,956181.683755574,44,B
31,3,21/7/91,21,f,3,Tim pulled the handle,Sensible,edin_semantics,emo_sem_emo_sem,0.93798621406313,1,1,1,1,956183.365617928,73,B
31,3,21/7/91,21,f,4,Joe solved the puzzle,Sensible,edin_semantics,emo_sem_emo_sem,1.12655357597396,1,2,2,1,956185.235624612,34,B
31,3,21/7/91,21,f,5,Erin posted the card,Sensible,edin_semantics,emo_sem_emo_sem,1.8199683255516,2,2,2,1,956187.799612119,36,B
31,3,21/7/91,21,f,6,Kate built the house,Sensible,edin_semantics,emo_sem_emo_sem,1.27880209172145,1,2,2,1,956189.822484067,46,B
31,3,21/7/91,21,f,7,The radio got Ben,Non-sensible,edin_semantics,emo_sem_emo_sem,1.07890812214464,2,2,2,1,956191.645530358,88,B
31,3,21/7/91,21,f,8,The rope pulled Andy,Non-sensible,edin_semantics,emo_sem_emo_sem,1.0554312937893,2,2,2,1,956193.444938819,148,B
31,3,21/7/91,21,f,9,Phil sniffed the milk,Sensible,edin_semantics,emo_sem_emo_sem,0.914420866407454,2,2,2,1,956195.103284575,18,B
31,3,21/7/91,21,f,10,Matt pushed the trolley,Sensible,edin_semantics,emo_sem_emo_sem,1.1969035603106,2,2,2,1,956197.043858372,26,B
31,3,21/7/91,21,f,11,Lara filed the papers,Sensible,edin_semantics,emo_sem_emo_sem,1.04385548538994,2,2,2,1,956198.831599619,24,B
31,3,21/7/91,21,f,12,Andy grated the cheese,Sensible,edin_semantics,emo_sem_emo_sem,1.23177210276481,1,1,1,1,956200.807437729,65,B
31,3,21/7/91,21,f,13,The dress wore Kate,Non-sensible,edin_semantics,emo_sem_emo_sem,0.925730154966004,2,2,2,1,956202.477573214,100,B
31,3,21/7/91,21,f,14,The monitor punched Erin,Non-sensible,edin_semantics,emo_sem_emo_sem,1.29080157342833,1,1,1,1,956204.512215007,125,B
31,3,21/7/91,21,f,15,The fat chewed Adam,Non-sensible,edin_semantics,emo_sem_emo_sem,1.10322620370425,2,2,2,1,956206.35873941,106,B
31,3,21/7/91,21,f,16,The radio fixed Luke,Non-sensible,edin_semantics,emo_sem_emo_sem,2.2908182508545,2,2,2,1,956209.3931227,112,B
31,3,21/7/91,21,f,17,The cream whisked Tom,Non-sensible,edin_semantics,emo_sem_emo_sem,1.16131531819701,2,1,1,1,956211.298389849,137,B
31,3,21/7/91,21,f,18,The beer drank Jack,Non-sensible,edin_semantics,emo_sem_emo_sem,1.39685590099543,1,1,1,1,956213.438956718,135,B
31,3,21/7/91,21,f,19,Erin crushed the garlic,Sensible,edin_semantics,emo_sem_emo_sem,1.24371000600513,2,2,2,1,956215.426596104,6,B
31,3,21/7/91,21,f,20,The rice stored Fred,Non-sensible,edin_semantics,emo_sem_emo_sem,0.89099599479232,2,1,1,1,956217.061384851,127,B
31,3,21/7/91,21,f,21,Tom dialed the number,Sensible,edin_semantics,emo_sem_emo_sem,1.31448687100783,1,1,1,1,956219.119605782,63,B
31,3,21/7/91,21,f,22,Hugh pulled the lever,Sensible,edin_semantics,emo_sem_emo_sem,1.16160043980926,1,1,1,1,956221.02489057,45,B
31,3,21/7/91,21,f,23,The hotline dialed Hugh,Non-sensible,edin_semantics,emo_sem_emo_sem,1.03154394146986,2,2,2,1,956222.800826692,138,B
31,3,21/7/91,21,f,24,The message typed Eve,Non-sensible,edin_semantics,emo_sem_emo_sem,1.25531596224755,1,2,2,1,956224.800251638,124,B
31,3,21/7/91,21,f,25,Tim cleaned the floor,Sensible,edin_semantics,emo_sem_emo_sem,0.903148781508207,2,1,1,1,956226.446803816,5,B
31,3,21/7/91,21,f,26,Liz sliced the tomato,Sensible,edin_semantics,emo_sem_emo_sem,0.96221096557565,2,1,1,1,956228.152145885,3,B
31,3,21/7/91,21,f,27,The salt passed Leo,Non-sensible,edin_semantics,emo_sem_emo_sem,1.43261444626842,1,2,2,1,956230.327963918,118,B
31,3,21/7/91,21,f,28,The donut iced Joe,Non-sensible,edin_semantics,emo_sem_emo_sem,1.05621577892452,2,1,1,1,956232.127481424,119,B
31,3,21/7/91,21,f,29,Sam tidied the room,Sensible,edin_semantics,emo_sem_emo_sem,1.20828918064944,1,2,2,1,956234.07983597,2,B
31,3,21/7/91,21,f,30,The rose kissed Hugh,Non-sensible,edin_semantics,emo_sem_emo_sem,1.2326002062764,1,2,2,1,956236.05566061,98,B
31,3,21/7/91,21,f,31,The trophy polished Anna,Non-sensible,edin_semantics,emo_sem_emo_sem,0.879768169601448,1,2,2,1,956237.678716716,104,B
31,3,21/7/91,21,f,32,The desk wiped Lucy,Non-sensible,edin_semantics,emo_sem_emo_sem,1.0676107002655,2,1,1,1,956239.489928376,115,B
31,3,21/7/91,21,f,33,Leo stored the wine,Sensible,edin_semantics,emo_sem_emo_sem,1.37327547941823,1,2,2,1,956241.606950103,52,B
31,3,21/7/91,21,f,34,The office entered Joe,Non-sensible,edin_semantics,emo_sem_emo_sem,1.13826986041386,1,1,1,1,956243.488741385,133,B
31,3,21/7/91,21,f,35,Liz scrubbed the bowl,Sensible,edin_semantics,emo_sem_emo_sem,0.902681169216521,2,2,2,1,956245.135344878,56,B
31,3,21/7/91,21,f,36,Lily got the kettle,Sensible,edin_semantics,emo_sem_emo_sem,1.03259302210063,2,1,1,1,956246.911224875,13,B
31,3,21/7/91,21,f,37,Beth took the photo,Sensible,edin_semantics,emo_sem_emo_sem,1.00909021520056,2,1,1,1,956248.663650814,53,B
31,3,21/7/91,21,f,38,The gum swallowed Owen,Non-sensible,edin_semantics,emo_sem_emo_sem,1.07969228678849,1,1,1,1,956250.486621736,97,B
31,3,21/7/91,21,f,39,Joe wore the jumper,Sensible,edin_semantics,emo_sem_emo_sem,0.985720828408375,2,1,1,1,956252.215528511,25,B
31,3,21/7/91,21,f,40,Jane punched the wall,Sensible,edin_semantics,emo_sem_emo_sem,1.03268282418139,1,2,2,1,956253.991508252,50,B
31,3,21/7/91,21,f,41,Jen weighed the flour,Sensible,edin_semantics,emo_sem_emo_sem,0.926843059365638,1,2,2,1,956255.661558425,64,B
31,3,21/7/91,21,f,42,Jen fixed the laptop,Sensible,edin_semantics,emo_sem_emo_sem,1.2919109496288,2,1,1,1,956257.696225234,37,B
31,3,21/7/91,21,f,43,The lemon squeezed Jay,Non-sensible,edin_semantics,emo_sem_emo_sem,1.2794961334439,2,2,2,1,956259.719146252,76,B
31,3,21/7/91,21,f,44,Jake dusted the shelf,Sensible,edin_semantics,emo_sem_emo_sem,0.973831033450551,1,1,1,1,956261.436303067,47,B
31,3,21/7/91,21,f,45,The opera watched Adam,Non-sensible,edin_semantics,emo_sem_emo_sem,0.809361738152802,2,2,2,1,956262.988793022,108,B
31,3,21/7/91,21,f,46,Sean read the book,Sensible,edin_semantics,emo_sem_emo_sem,1.36170480260625,1,2,2,1,956265.094018604,4,B
31,3,21/7/91,21,f,47,The hair brushed Dan,Non-sensible,edin_semantics,emo_sem_emo_sem,1.22084832168184,1,1,1,1,956267.058156466,147,B
31,3,21/7/91,21,f,48,The report filed Ian,Non-sensible,edin_semantics,emo_sem_emo_sem,1.13865504704881,2,1,1,1,956268.939978858,99,B
31,3,21/7/91,21,f,49,The pot scrubbed Josh,Non-sensible,edin_semantics,emo_sem_emo_sem,1.13888275949284,1,1,1,1,956270.821764688,131,B
31,3,21/7/91,21,f,50,Max lent the bucket,Sensible,edin_semantics,emo_sem_emo_sem,2.02065319474787,1,1,1,1,956273.585556362,19,B
31,3,21/7/91,21,f,51,The church described Erin,Non-sensible,edin_semantics,emo_sem_emo_sem,0.997312672785483,2,1,1,1,956275.326250301,117,B
31,3,21/7/91,21,f,52,Lily dented the lorry,Sensible,edin_semantics,emo_sem_emo_sem,0.95039878541138,2,1,1,1,956277.01991329,71,B
31,3,21/7/91,21,f,53,Ryan carried the gun,Sensible,edin_semantics,emo_sem_emo_sem,0.973928533028811,1,1,1,1,956278.736965229,75,B
31,3,21/7/91,21,f,54,Mark washed the dishes,Sensible,edin_semantics,emo_sem_emo_sem,0.926812911522575,1,1,1,1,956280.407081471,57,B
31,3,21/7/91,21,f,55,The carrots chopped Fred,Non-sensible,edin_semantics,emo_sem_emo_sem,0.926673397538252,1,2,2,1,956282.077144474,102,B
31,3,21/7/91,21,f,56,The rules taught Josh,Non-sensible,edin_semantics,emo_sem_emo_sem,1.07993635605089,2,2,2,1,956283.900119886,90,B
31,3,21/7/91,21,f,57,The carrots grated Tom,Non-sensible,edin_semantics,emo_sem_emo_sem,0.762171709211543,2,2,2,1,956285.405553874,140,B
31,3,21/7/91,21,f,58,The ribbon cut Lucy,Non-sensible,edin_semantics,emo_sem_emo_sem,1.20892517175525,1,1,1,1,956287.357911627,95,B
31,3,21/7/91,21,f,59,The steak ate Mike,Non-sensible,edin_semantics,emo_sem_emo_sem,1.12722773291171,1,2,2,1,956289.227928895,142,B
31,3,21/7/91,21,f,60,Ben chewed the toffee,Sensible,edin_semantics,emo_sem_emo_sem,1.05613944726065,1,1,1,1,956291.027405669,31,B
31,3,21/7/91,21,f,61,Jon cut the paper,Sensible,edin_semantics,emo_sem_emo_sem,0.83300534193404,2,2,2,1,956292.603490478,20,B
31,3,21/7/91,21,f,62,The garage tidied Erin,Non-sensible,edin_semantics,emo_sem_emo_sem,0.915095023461618,1,1,1,1,956294.26172302,77,B
31,3,21/7/91,21,f,63,The perfume sniffed Tim,Non-sensible,edin_semantics,emo_sem_emo_sem,0.832609571400099,2,1,1,1,956295.837734063,93,B
31,3,21/7/91,21,f,64,Jen searched the room,Sensible,edin_semantics,emo_sem_emo_sem,1.46797946607694,1,2,2,1,956298.048847519,10,B
31,3,21/7/91,21,f,65,Ryan entered the room,Sensible,edin_semantics,emo_sem_emo_sem,1.07949087361339,1,2,2,1,956299.871810102,58,B
31,3,21/7/91,21,f,66,Rob mailed the parcel,Sensible,edin_semantics,emo_sem_emo_sem,1.10334519157186,1,2,2,1,956301.718315582,14,B
31,3,21/7/91,21,f,67,Bill counted the sheets,Sensible,edin_semantics,emo_sem_emo_sem,0.973645014921203,2,2,2,1,956303.435457965,48,B
31,3,21/7/91,21,f,68,The car lent Fred,Non-sensible,edin_semantics,emo_sem_emo_sem,3.36134431138635,1,2,2,1,956307.540089892,94,B
31,3,21/7/91,21,f,69,The internet searched Max,Non-sensible,edin_semantics,emo_sem_emo_sem,0.738713803351857,1,1,1,1,956309.022040637,85,B
31,3,21/7/91,21,f,70,Leah sucked the lolly,Sensible,edin_semantics,emo_sem_emo_sem,1.20942998770624,1,2,2,1,956310.974585692,12,B
31,3,21/7/91,21,f,71,Beth wiped the table,Sensible,edin_semantics,emo_sem_emo_sem,1.07975963840727,1,2,2,1,956312.797336278,40,B
31,3,21/7/91,21,f,72,The rope pulled Emma,Non-sensible,edin_semantics,emo_sem_emo_sem,1.10327206691727,1,2,2,1,956314.643863568,120,B
31,3,21/7/91,21,f,73,Liz labeled the jar,Sensible,edin_semantics,emo_sem_emo_sem,1.22138713416643,2,1,1,1,956316.607968074,61,B
31,3,21/7/91,21,f,74,The bowl dented Ian,Non-sensible,edin_semantics,emo_sem_emo_sem,1.17351396812592,2,2,2,1,956318.525088455,146,B
31,3,21/7/91,21,f,75,The nuts mixed Liam,Non-sensible,edin_semantics,emo_sem_emo_sem,1.67947650526185,1,1,1,1,956320.947820504,83,B
31,3,21/7/91,21,f,76,Jack mixed the fruits,Sensible,edin_semantics,emo_sem_emo_sem,0.938638562103733,2,2,2,1,956322.629689272,8,B
31,3,21/7/91,21,f,77,The pan washed Beth,Non-sensible,edin_semantics,emo_sem_emo_sem,0.820890079718083,2,2,2,1,956324.193907057,132,B
31,3,21/7/91,21,f,78,The blanket stroked Ryan,Non-sensible,edin_semantics,emo_sem_emo_sem,1.0446579309646,2,2,2,1,956325.981613987,116,B
31,3,21/7/91,21,f,79,The shed built Rose,Non-sensible,edin_semantics,emo_sem_emo_sem,1.12671233306173,2,1,1,1,956327.851646329,121,B
31,3,21/7/91,21,f,80,Phil typed the letter,Sensible,edin_semantics,emo_sem_emo_sem,1.37380306655541,1,1,1,1,956329.968675753,49,B
31,3,21/7/91,21,f,81,Mike paid the bill,Sensible,edin_semantics,emo_sem_emo_sem,0.938579228590243,2,1,1,1,956331.650535862,59,B
31,3,21/7/91,21,f,82,Amy hugged the tree,Sensible,edin_semantics,emo_sem_emo_sem,1.17399184347596,1,1,1,1,956333.567637,11,B
31,3,21/7/91,21,f,83,Josh squeezed the ball,Sensible,edin_semantics,emo_sem_emo_sem,1.1151592960814,1,1,1,1,956335.425855557,1,B
31,3,21/7/91,21,f,84,Eve taught the lesson,Sensible,edin_semantics,emo_sem_emo_sem,0.950019371579401,2,1,1,1,956337.119452797,15,B
31,3,21/7/91,21,f,85,Matt drank the juice,Sensible,edin_semantics,emo_sem_emo_sem,1.20925294933841,2,2,2,1,956339.07181023,60,B
31,3,21/7/91,21,f,86,Luke climbed the hill,Sensible,edin_semantics,emo_sem_emo_sem,1.03272355592344,2,2,2,1,956340.847699848,68,B
31,3,21/7/91,21,f,87,The door kicked Max,Non-sensible,edin_semantics,emo_sem_emo_sem,0.679633338120766,2,2,2,1,956342.270847552,114,B
31,3,21/7/91,21,f,88,The ice crushed Josh,Non-sensible,edin_semantics,emo_sem_emo_sem,0.997586569166742,1,1,1,1,956344.011503325,81,B
31,3,21/7/91,21,f,89,The invite mailed Ian,Non-sensible,edin_semantics,emo_sem_emo_sem,1.00925089675002,2,1,1,1,956345.763899437,89,B
31,3,21/7/91,21,f,90,The box labeled Ian,Non-sensible,edin_semantics,emo_sem_emo_sem,1.3502909586532,1,2,2,1,956347.857403925,136,B
31,3,21/7/91,21,f,91,Luke swallowed the pill,Sensible,edin_semantics,emo_sem_emo_sem,1.60893857805058,2,2,2,1,956350.209633967,22,B
31,3,21/7/91,21,f,92,The candy sucked Sam,Non-sensible,edin_semantics,emo_sem_emo_sem,1.26800627843477,2,1,1,1,956352.220804062,87,B
31,3,21/7/91,21,f,93,Ewan wrote the story,Sensible,edin_semantics,emo_sem_emo_sem,1.23254824941978,1,2,2,1,956354.196677131,74,B
31,3,21/7/91,21,f,94,The socks knitted Ryan,Non-sensible,edin_semantics,emo_sem_emo_sem,1.80875236692373,1,1,1,1,956356.748866569,141,B
31,3,21/7/91,21,f,95,The debt paid Zoe,Non-sensible,edin_semantics,emo_sem_emo_sem,1.25583168270532,1,2,2,1,956358.748234748,134,B
31,3,21/7/91,21,f,96,Kate served the dish,Sensible,edin_semantics,emo_sem_emo_sem,1.03302310989238,2,2,2,1,956360.524238863,70,B
31,3,21/7/91,21,f,97,Carl sold the sofa,Sensible,edin_semantics,emo_sem_emo_sem,1.30337642971426,1,2,2,1,956362.570627088,38,B
31,3,21/7/91,21,f,98,Kate lifted the box,Sensible,edin_semantics,emo_sem_emo_sem,0.926909769419581,2,1,1,1,956364.24068111,69,B
31,3,21/7/91,21,f,99,Amy measured the thread,Sensible,edin_semantics,emo_sem_emo_sem,0.821197972516529,2,1,1,1,956365.804981321,51,B
31,3,21/7/91,21,f,100,Jeff watered the garden,Sensible,edin_semantics,emo_sem_emo_sem,1.17382346454542,2,2,2,1,956367.72212287,54,B
31,3,21/7/91,21,f,101,The hair trimmed Bill,Non-sensible,edin_semantics,emo_sem_emo_sem,1.69140254158992,1,1,1,1,956370.156611614,107,B
31,3,21/7/91,21,f,102,The poster read Luke,Non-sensible,edin_semantics,emo_sem_emo_sem,1.97364661854226,2,1,1,1,956372.873486835,79,B
31,3,21/7/91,21,f,103,The dessert served Fred,Non-sensible,edin_semantics,emo_sem_emo_sem,1.00874447717797,1,1,1,1,956374.625827141,145,B
31,3,21/7/91,21,f,104,The pillow hugged Kate,Non-sensible,edin_semantics,emo_sem_emo_sem,0.99752402852755,2,2,2,1,956376.366509855,86,B
31,3,21/7/91,21,f,105,The button pushed Ian,Non-sensible,edin_semantics,emo_sem_emo_sem,1.07963070820551,1,1,1,1,956378.189476287,101,B
31,3,21/7/91,21,f,106,Tim ate the ham,Sensible,edin_semantics,emo_sem_emo_sem,1.25525983585976,2,1,1,1,956380.188864671,67,B
31,3,21/7/91,21,f,107,Rob stroked the fur,Sensible,edin_semantics,emo_sem_emo_sem,0.890801958157681,2,1,1,1,956381.823665605,41,B
31,3,21/7/91,21,f,108,The curtains measured Rob,Non-sensible,edin_semantics,emo_sem_emo_sem,0.937646249076352,1,2,2,1,956383.505549127,126,B
31,3,21/7/91,21,f,109,The party cancelled Phil,Non-sensible,edin_semantics,emo_sem_emo_sem,1.13785837439355,2,2,2,1,956385.387356766,82,B
31,3,21/7/91,21,f,110,Will licked the spoon,Sensible,edin_semantics,emo_sem_emo_sem,0.760899085667916,2,1,1,1,956386.892776962,21,B
31,3,21/7/91,21,f,111,Phil passed the towels,Sensible,edin_semantics,emo_sem_emo_sem,1.03133739670739,1,1,1,1,956388.668675561,43,B
31,3,21/7/91,21,f,112,Dan whisked the eggs,Sensible,edin_semantics,emo_sem_emo_sem,1.17259381746408,1,2,2,1,956390.58575521,62,B
31,3,21/7/91,21,f,113,Jon trimmed the bushes,Sensible,edin_semantics,emo_sem_emo_sem,1.06712063751183,1,2,2,1,956392.39698002,32,B
31,3,21/7/91,21,f,114,Ian cancelled the plans,Sensible,edin_semantics,emo_sem_emo_sem,2.23150141374208,1,1,1,1,956395.37257342,7,B
31,3,21/7/91,21,f,115,The crate lifted Amy,Non-sensible,edin_semantics,emo_sem_emo_sem,1.64288472488988,2,2,2,1,956397.760049814,144,B
31,3,21/7/91,21,f,116,The wallet carried Leo,Non-sensible,edin_semantics,emo_sem_emo_sem,1.13720089488197,1,2,2,1,956399.641856812,150,B
31,3,21/7/91,21,f,117,The ticket took Tim,Non-sensible,edin_semantics,emo_sem_emo_sem,0.972998440032825,2,2,2,1,956401.359013948,128,B
31,3,21/7/91,21,f,118,The plate licked Jane,Non-sensible,edin_semantics,emo_sem_emo_sem,0.819770760950632,2,2,2,1,956402.923215055,96,B
31,3,21/7/91,21,f,119,Matt kicked the bike,Sensible,edin_semantics,emo_sem_emo_sem,1.33706856518984,1,1,1,1,956405.004967338,39,B
31,3,21/7/91,21,f,120,The house dusted Alex,Non-sensible,edin_semantics,emo_sem_emo_sem,0.88986096077133,2,2,2,1,956406.639771159,122,B
31,3,21/7/91,21,f,121,The onion sliced Liam,Non-sensible,edin_semantics,emo_sem_emo_sem,0.854901333223097,2,2,2,1,956408.239268652,78,B
31,3,21/7/91,21,f,122,Tom knitted the scarf,Sensible,edin_semantics,emo_sem_emo_sem,0.84308498352766,2,2,2,1,956409.827032221,66,B
31,3,21/7/91,21,f,123,Will mashed the potatoes,Sensible,edin_semantics,emo_sem_emo_sem,0.819499430363066,2,2,2,1,956411.391261232,28,B
31,3,21/7/91,21,f,124,Ryan painted the picture,Sensible,edin_semantics,emo_sem_emo_sem,0.913632853189483,2,1,1,1,956413.049583254,35,B
31,3,21/7/91,21,f,125,John described the pen,Sensible,edin_semantics,emo_sem_emo_sem,2.38352061342448,1,2,2,1,956416.178050256,42,B
31,3,21/7/91,21,f,126,The portrait painted Jay,Non-sensible,edin_semantics,emo_sem_emo_sem,1.10188686987385,1,2,2,1,956418.024625333,110,B
31,3,21/7/91,21,f,127,Jon polished the coins,Sensible,edin_semantics,emo_sem_emo_sem,0.925537080620416,2,1,1,1,956419.694655943,29,B
31,3,21/7/91,21,f,128,The report wrote Alex,Non-sensible,edin_semantics,emo_sem_emo_sem,1.91345164540689,1,1,1,1,956422.352668789,149,B
31,3,21/7/91,21,f,129,The sugar weighed Liz,Non-sensible,edin_semantics,emo_sem_emo_sem,0.960852388525382,2,1,1,1,956424.058056722,139,B
31,3,21/7/91,21,f,130,The trousers ironed Eve,Non-sensible,edin_semantics,emo_sem_emo_sem,0.984345894539729,2,2,2,1,956425.786957082,130,B
31,3,21/7/91,21,f,131,Matt offered the money,Sensible,edin_semantics,emo_sem_emo_sem,1.24311635014601,1,1,1,1,956427.774605769,9,B
31,3,21/7/91,21,f,132,The kettle carried John,Non-sensible,edin_semantics,emo_sem_emo_sem,1.0783677061554,1,1,1,1,956429.597550071,105,B
31,3,21/7/91,21,f,133,The plants watered Luke,Non-sensible,edin_semantics,emo_sem_emo_sem,1.1489207072882,1,1,1,1,956431.491148081,129,B
31,3,21/7/91,21,f,134,The gift posted Jack,Non-sensible,edin_semantics,emo_sem_emo_sem,0.878248910768889,1,1,1,1,956433.114137477,111,B
31,3,21/7/91,21,f,135,Max kissed the mirror,Sensible,edin_semantics,emo_sem_emo_sem,0.784997793496586,1,1,1,1,956434.643163753,23,B
31,3,21/7/91,21,f,136,Mary visited the museum,Sensible,edin_semantics,emo_sem_emo_sem,1.03267416474409,2,2,2,1,956436.419077746,16,B
31,3,21/7/91,21,f,137,The stairs climbed Ben,Non-sensible,edin_semantics,emo_sem_emo_sem,0.901806561276317,1,1,1,1,956438.06562832,143,B
31,3,21/7/91,21,f,138,The sweets offered Tom,Non-sensible,edin_semantics,emo_sem_emo_sem,1.00816429161932,1,2,2,1,956439.81804624,84,B
31,3,21/7/91,21,f,139,Jon jumped the fence,Sensible,edin_semantics,emo_sem_emo_sem,0.760971568641253,1,1,1,1,956441.323459381,17,B
31,3,21/7/91,21,f,140,The bed sold Jay,Non-sensible,edin_semantics,emo_sem_emo_sem,1.11388603085652,1,1,1,1,956443.181695258,113,B
31,3,21/7/91,21,f,141,The hedge jumped Sara,Non-sensible,edin_semantics,emo_sem_emo_sem,0.796336909173988,2,2,2,1,956444.72245193,92,B
31,3,21/7/91,21,f,142,Josh ironed the shirt,Sensible,edin_semantics,emo_sem_emo_sem,1.20773240772542,2,1,1,1,956446.674784667,55,B
31,3,21/7/91,21,f,143,Ella watched the movie,Sensible,edin_semantics,emo_sem_emo_sem,0.926063384860754,1,1,1,1,956448.344857933,33,B
31,3,21/7/91,21,f,144,The turnip mashed Ella,Non-sensible,edin_semantics,emo_sem_emo_sem,1.07865186559502,1,1,1,1,956450.167888189,103,B
31,3,21/7/91,21,f,145,Dan carried the folder,Sensible,edin_semantics,emo_sem_emo_sem,1.32540135108866,1,2,2,1,956452.237817065,30,B
31,3,21/7/91,21,f,146,The shoes counted Lucy,Non-sensible,edin_semantics,emo_sem_emo_sem,1.31349327520002,1,1,1,1,956454.296029979,123,B
31,3,21/7/91,21,f,147,The problem solved Phil,Non-sensible,edin_semantics,emo_sem_emo_sem,0.889867695863359,2,1,1,1,956455.930823216,109,B
31,3,21/7/91,21,f,148,Phil chopped the herbs,Sensible,edin_semantics,emo_sem_emo_sem,0.807566658826545,2,1,1,1,956457.483292644,27,B
31,3,21/7/91,21,f,149,The bath cleaned Jack,Non-sensible,edin_semantics,emo_sem_emo_sem,1.01939660694916,2,2,2,1,956459.247468864,80,B
31,3,21/7/91,21,f,150,The hospital visited Tom,Non-sensible,edin_semantics,emo_sem_emo_sem,0.984353912528604,2,1,1,1,956460.976401939,91,B
31,3,21/7/91,21,f,24,Alex wrote the report,Sensible,edin_semantics,emo_sem_emo_sem,1.34313212963752,2,2,2,1,956519.358873471,149,A
31,3,21/7/91,21,f,25,Jay painted the portrait,Sensible,edin_semantics,emo_sem_emo_sem,1.1840522417333,1,1,1,1,956521.28767133,110,A
31,3,21/7/91,21,f,26,The tree hugged Amy,Non-sensible,edin_semantics,emo_sem_emo_sem,0.902300151879899,1,2,2,1,956522.934262956,11,A
31,3,21/7/91,21,f,27,Ben climbed the stairs,Sensible,edin_semantics,emo_sem_emo_sem,0.913888789131306,1,2,2,1,956524.592548737,143,A
31,3,21/7/91,21,f,28,Liz weighed the sugar,Sensible,edin_semantics,emo_sem_emo_sem,1.07836578181013,1,2,2,1,956526.415555259,139,A
31,3,21/7/91,21,f,29,The money offered Matt,Non-sensible,edin_semantics,emo_sem_emo_sem,1.43181007634848,2,2,2,1,956528.5913502,9,A
31,3,21/7/91,21,f,30,The trolley pushed Matt,Non-sensible,edin_semantics,emo_sem_emo_sem,0.772946354816668,2,1,1,1,956530.108572635,26,A
31,3,21/7/91,21,f,31,The tomato sliced Liz,Non-sensible,edin_semantics,emo_sem_emo_sem,0.866174059570767,2,2,1,0,956531.719828427,3,A
31,3,21/7/91,21,f,32,Alex dusted the house,Sensible,edin_semantics,emo_sem_emo_sem,0.831274086260237,2,1,1,1,956533.295852619,122,A
31,3,21/7/91,21,f,33,Max searched the internet,Sensible,edin_semantics,emo_sem_emo_sem,0.655017626937479,2,2,2,1,956534.695401941,85,A
31,3,21/7/91,21,f,34,Tom visited the hospital,Sensible,edin_semantics,emo_sem_emo_sem,1.1489973597927,1,2,2,1,956536.588958257,91,A
31,3,21/7/91,21,f,35,Fred served the dessert,Sensible,edin_semantics,emo_sem_emo_sem,0.84303366811946,1,2,2,1,956538.176702904,145,A
31,3,21/7/91,21,f,36,Ben got the radio,Sensible,edin_semantics,emo_sem_emo_sem,1.26680068555288,1,1,1,1,956540.187879734,88,A
31,3,21/7/91,21,f,37,Hugh dialed the hotline,Sensible,edin_semantics,emo_sem_emo_sem,0.913405782193877,1,1,1,1,956541.846235433,138,A
31,3,21/7/91,21,f,38,Fred chopped the carrots,Sensible,edin_semantics,emo_sem_emo_sem,0.807550622732379,1,1,1,1,956543.398689788,102,A
31,3,21/7/91,21,f,39,The box lifted Kate,Non-sensible,edin_semantics,emo_sem_emo_sem,0.925343043985777,2,2,2,1,956545.068795126,69,A
31,3,21/7/91,21,f,40,Jay squeezed the lemon,Sensible,edin_semantics,emo_sem_emo_sem,0.914163647568785,2,1,1,1,956546.727083793,76,A
31,3,21/7/91,21,f,41,The floor cleaned Tim,Non-sensible,edin_semantics,emo_sem_emo_sem,1.06609561096411,1,2,2,1,956548.538307641,5,A
31,3,21/7/91,21,f,42,The garlic crushed Erin,Non-sensible,edin_semantics,emo_sem_emo_sem,1.0315279053757,1,1,1,1,956550.31424665,6,A
31,3,21/7/91,21,f,43,Tom grated the carrots,Sensible,edin_semantics,emo_sem_emo_sem,1.10180861374829,2,1,1,1,956552.160773298,140,A
31,3,21/7/91,21,f,44,The mirror kissed Max,Non-sensible,edin_semantics,emo_sem_emo_sem,1.08993549644947,1,2,2,1,956553.995492577,23,A
31,3,21/7/91,21,f,45,Josh crushed the ice,Sensible,edin_semantics,emo_sem_emo_sem,1.13654566043988,1,2,2,1,956555.877344796,81,A
31,3,21/7/91,21,f,46,Sara jumped the hedge,Sensible,edin_semantics,emo_sem_emo_sem,0.831109876628034,1,1,1,1,956557.45328945,92,A
31,3,21/7/91,21,f,47,The dishes washed Mark,Non-sensible,edin_semantics,emo_sem_emo_sem,1.00770373526029,1,2,2,1,956559.205695825,57,A
31,3,21/7/91,21,f,48,Erin described the church,Sensible,edin_semantics,emo_sem_emo_sem,1.00768320914358,2,2,2,1,956560.958142932,117,A
31,3,21/7/91,21,f,49,The juice drank Matt,Non-sensible,edin_semantics,emo_sem_emo_sem,0.913917974801734,2,1,1,1,956562.616461426,60,A
31,3,21/7/91,21,f,50,Josh scrubbed the pot,Sensible,edin_semantics,emo_sem_emo_sem,0.972858605440706,1,2,2,1,956564.333577189,131,A
31,3,21/7/91,21,f,51,Jack drank the beer,Sensible,edin_semantics,emo_sem_emo_sem,1.00776916241739,1,2,2,1,956566.085991902,135,A
31,3,21/7/91,21,f,52,The ball squeezed Josh,Non-sensible,edin_semantics,emo_sem_emo_sem,0.855514553026296,2,2,2,1,956567.685516657,1,A
31,3,21/7/91,21,f,53,Jack posted the gift,Sensible,edin_semantics,emo_sem_emo_sem,2.7135150199756,1,2,2,1,956571.143316096,111,A
31,3,21/7/91,21,f,54,The jar labeled Liz,Non-sensible,edin_semantics,emo_sem_emo_sem,1.11403644946404,1,2,2,1,956573.001550048,61,A
31,3,21/7/91,21,f,55,The movie watched Ella,Non-sensible,edin_semantics,emo_sem_emo_sem,0.995792772737332,1,2,2,1,956574.74221865,33,A
31,3,21/7/91,21,f,56,The jumper wore Joe,Non-sensible,edin_semantics,emo_sem_emo_sem,1.03153720626142,1,2,2,1,956576.518140661,25,A
31,3,21/7/91,21,f,57,The fur stroked Rob,Non-sensible,edin_semantics,emo_sem_emo_sem,0.984263789840043,2,2,2,1,956578.247030759,41,A
31,3,21/7/91,21,f,58,Phil cancelled the party,Sensible,edin_semantics,emo_sem_emo_sem,1.37244128226303,1,1,1,1,956580.364071408,82,A
31,3,21/7/91,21,f,59,The plans cancelled Ian,Non-sensible,edin_semantics,emo_sem_emo_sem,1.07872466940898,1,2,2,1,956582.187060611,7,A
31,3,21/7/91,21,f,60,The picture painted Ryan,Non-sensible,edin_semantics,emo_sem_emo_sem,1.34911647590343,1,2,2,1,956584.280529178,35,A
31,3,21/7/91,21,f,61,Luke fixed the radio,Sensible,edin_semantics,emo_sem_emo_sem,1.72574381774757,2,1,1,1,956586.75039545,112,A
31,3,21/7/91,21,f,62,Fred lent the car,Sensible,edin_semantics,emo_sem_emo_sem,0.996425556601025,2,1,1,1,956588.49102781,94,A
31,3,21/7/91,21,f,63,Tim took the ticket,Sensible,edin_semantics,emo_sem_emo_sem,0.960730514139868,2,1,1,1,956590.196460323,128,A
31,3,21/7/91,21,f,64,Ian pushed the button,Sensible,edin_semantics,emo_sem_emo_sem,1.09022093878593,1,2,2,1,956592.031148812,101,A
31,3,21/7/91,21,f,65,The book read Sean,Non-sensible,edin_semantics,emo_sem_emo_sem,1.71314747293945,1,1,1,1,956594.489232731,4,A
31,3,21/7/91,21,f,66,Anna polished the trophy,Sensible,edin_semantics,emo_sem_emo_sem,0.759953918750398,1,1,1,1,956595.994680189,104,A
31,3,21/7/91,21,f,67,Ian dented the bowl,Sensible,edin_semantics,emo_sem_emo_sem,1.56057534913998,2,1,1,1,956598.299848812,146,A
31,3,21/7/91,21,f,68,Ian labeled the box,Sensible,edin_semantics,emo_sem_emo_sem,1.06651479424909,2,1,1,1,956600.111062718,136,A
31,3,21/7/91,21,f,69,Eve ironed the trousers,Sensible,edin_semantics,emo_sem_emo_sem,1.0780925268773,1,1,1,1,956601.934074051,130,A
31,3,21/7/91,21,f,70,Leo carried the wallet,Sensible,edin_semantics,emo_sem_emo_sem,1.0074288767064,1,1,1,1,956603.686459258,150,A
31,3,21/7/91,21,f,71,The shelf dusted Jake,Non-sensible,edin_semantics,emo_sem_emo_sem,1.74867958878167,2,2,2,1,956606.179838921,47,A
31,3,21/7/91,21,f,72,Joe entered the office,Sensible,edin_semantics,emo_sem_emo_sem,1.05494989047293,1,2,2,1,956607.979301584,133,A
31,3,21/7/91,21,f,73,The parcel mailed Rob,Non-sensible,edin_semantics,emo_sem_emo_sem,1.00740353972651,1,1,1,1,956609.731741955,14,A
31,3,21/7/91,21,f,74,The gun carried Ryan,Non-sensible,edin_semantics,emo_sem_emo_sem,1.1371733128326,2,2,2,1,956611.61349892,75,A
31,3,21/7/91,21,f,75,The dish served Kate,Non-sensible,edin_semantics,emo_sem_emo_sem,0.761128401616588,2,1,1,1,956613.118934832,70,A
31,3,21/7/91,21,f,76,Ryan knitted the socks,Sensible,edin_semantics,emo_sem_emo_sem,0.795640301657841,2,2,2,1,956614.659712993,141,A
31,3,21/7/91,21,f,77,The spoon licked Will,Non-sensible,edin_semantics,emo_sem_emo_sem,1.00794588017743,1,2,2,1,956616.412090503,21,A
31,3,21/7/91,21,f,78,The folder carried Dan,Non-sensible,edin_semantics,emo_sem_emo_sem,1.30156242789235,2,1,1,1,956618.458531967,30,A
31,3,21/7/91,21,f,79,The sheets counted Bill,Non-sensible,edin_semantics,emo_sem_emo_sem,1.03160680294968,2,1,1,1,956620.234452695,48,A
31,3,21/7/91,21,f,80,Ryan stroked the blanket,Sensible,edin_semantics,emo_sem_emo_sem,1.11408904776908,1,1,1,1,956622.092708777,116,A
31,3,21/7/91,21,f,81,The milk sniffed Phil,Non-sensible,edin_semantics,emo_sem_emo_sem,0.831629125052132,1,1,1,1,956623.668698332,18,A
31,3,21/7/91,21,f,82,Ian mailed the invite,Sensible,edin_semantics,emo_sem_emo_sem,0.972594972117804,2,2,2,1,956625.385824678,89,A
31,3,21/7/91,21,f,83,Emma pulled the rope,Sensible,edin_semantics,emo_sem_emo_sem,0.796393676893786,2,1,1,1,956626.926563069,120,A
31,3,21/7/91,21,f,84,The card posted Erin,Non-sensible,edin_semantics,emo_sem_emo_sem,0.832142921397462,2,1,1,1,956628.502549738,36,A
31,3,21/7/91,21,f,85,Kate wore the dress,Sensible,edin_semantics,emo_sem_emo_sem,0.95009121322073,1,1,1,1,956630.196182257,100,A
31,3,21/7/91,21,f,86,The shirt ironed Josh,Non-sensible,edin_semantics,emo_sem_emo_sem,1.0309550963575,1,2,2,1,956631.972111003,55,A
31,3,21/7/91,21,f,87,The pill swallowed Luke,Non-sensible,edin_semantics,emo_sem_emo_sem,0.854503638343886,1,1,1,1,956633.571649549,22,A
31,3,21/7/91,21,f,88,The coins polished Jon,Non-sensible,edin_semantics,emo_sem_emo_sem,0.760940138017759,1,2,2,1,956635.077050181,29,A
31,3,21/7/91,21,f,89,The fruits mixed Jack,Non-sensible,edin_semantics,emo_sem_emo_sem,0.760782342869788,1,1,1,1,956636.582463322,8,A
31,3,21/7/91,21,f,90,The lesson taught Eve,Non-sensible,edin_semantics,emo_sem_emo_sem,1.2430281516863,2,2,2,1,956638.570120668,15,A
31,3,21/7/91,21,f,91,The lever pulled Hugh,Non-sensible,edin_semantics,emo_sem_emo_sem,1.36102840059903,2,2,2,1,956640.675395963,45,A
31,3,21/7/91,21,f,92,The room tidied Sam,Non-sensible,edin_semantics,emo_sem_emo_sem,0.91392214410007,1,1,1,1,956642.333714137,2,A
31,3,21/7/91,21,f,93,Owen swallowed the gum,Sensible,edin_semantics,emo_sem_emo_sem,0.866848858073354,2,2,2,1,956643.944956459,97,A
31,3,21/7/91,21,f,94,The bill paid Mike,Non-sensible,edin_semantics,emo_sem_emo_sem,1.0315821073018,1,2,2,1,956645.720918239,59,A
31,3,21/7/91,21,f,95,Jay sold the bed,Sensible,edin_semantics,emo_sem_emo_sem,0.888595713651739,1,2,2,1,956647.35569544,113,A
31,3,21/7/91,21,f,96,Rob measured the curtains,Sensible,edin_semantics,emo_sem_emo_sem,0.737632971256971,1,1,1,1,956648.837614754,126,A
31,3,21/7/91,21,f,97,Leo passed the salt,Sensible,edin_semantics,emo_sem_emo_sem,1.18382324639242,1,1,1,1,956650.766416461,118,A
31,3,21/7/91,21,f,98,The puzzle solved Joe,Non-sensible,edin_semantics,emo_sem_emo_sem,1.12571873737033,1,1,1,1,956652.636502042,34,A
31,3,21/7/91,21,f,99,Sam sucked the candy,Sensible,edin_semantics,emo_sem_emo_sem,1.07850497495383,1,2,2,1,956654.459443779,87,A
31,3,21/7/91,21,f,100,Lucy counted the shoes,Sensible,edin_semantics,emo_sem_emo_sem,0.855282671167515,2,2,2,1,956656.058953459,123,A
31,3,21/7/91,21,f,101,The lolly sucked Leah,Non-sensible,edin_semantics,emo_sem_emo_sem,0.773653866839595,1,1,1,1,956657.576191289,12,A
31,3,21/7/91,21,f,102,Tom whisked the cream,Sensible,edin_semantics,emo_sem_emo_sem,0.773448604973964,1,2,2,1,956659.093373954,137,A
31,3,21/7/91,21,f,103,The flour weighed Jen,Non-sensible,edin_semantics,emo_sem_emo_sem,0.891222424339503,2,1,1,1,956660.728236146,64,A
31,3,21/7/91,21,f,104,The pen described John,Non-sensible,edin_semantics,emo_sem_emo_sem,0.773366179550067,2,1,1,1,956662.245358516,42,A
31,3,21/7/91,21,f,105,The sofa sold Carl,Non-sensible,edin_semantics,emo_sem_emo_sem,0.773695240030065,2,1,1,1,956663.762580309,38,A
31,3,21/7/91,21,f,106,Bill trimmed the hair,Sensible,edin_semantics,emo_sem_emo_sem,1.14958844985813,1,2,2,1,956665.656106156,107,A
31,3,21/7/91,21,f,107,Adam chewed the fat,Sensible,edin_semantics,emo_sem_emo_sem,1.03185600368306,1,1,1,1,956667.432106744,106,A
31,3,21/7/91,21,f,108,The cheese grated Andy,Non-sensible,edin_semantics,emo_sem_emo_sem,0.984442431712523,2,2,2,1,956669.160923396,65,A
31,3,21/7/91,21,f,109,The story wrote Ewan,Non-sensible,edin_semantics,emo_sem_emo_sem,0.85593341558706,1,1,1,1,956670.760442057,74,A
31,3,21/7/91,21,f,110,Joe iced the donut,Sensible,edin_semantics,emo_sem_emo_sem,1.1733494377695,1,2,2,1,956672.677534856,119,A
31,3,21/7/91,21,f,111,The hill climbed Luke,Non-sensible,edin_semantics,emo_sem_emo_sem,1.72625216166489,1,1,1,1,956675.147363283,68,A
31,3,21/7/91,21,f,112,The kettle got Lily,Non-sensible,edin_semantics,emo_sem_emo_sem,1.22026621177793,1,2,2,1,956677.111476449,13,A
31,3,21/7/91,21,f,113,Phil solved the problem,Sensible,edin_semantics,emo_sem_emo_sem,0.902299189707264,1,2,2,1,956678.758060699,109,A
31,3,21/7/91,21,f,114,Tom offered the sweets,Sensible,edin_semantics,emo_sem_emo_sem,0.891120755579323,1,1,1,1,956680.392848483,84,A
31,3,21/7/91,21,f,115,The teeth brushed Carl,Non-sensible,edin_semantics,emo_sem_emo_sem,0.867464002105407,2,1,1,1,956682.00412833,72,A
31,3,21/7/91,21,f,116,The ham ate Tim,Non-sensible,edin_semantics,emo_sem_emo_sem,1.5845278078923,1,2,2,1,956684.332847226,67,A
31,3,21/7/91,21,f,117,Lucy cut the ribbon,Sensible,edin_semantics,emo_sem_emo_sem,1.03169564285781,2,2,2,1,956686.108766671,95,A
31,3,21/7/91,21,f,118,Liam mixed the nuts,Sensible,edin_semantics,emo_sem_emo_sem,2.18232355173677,1,2,2,1,956689.037372417,83,A
31,3,21/7/91,21,f,119,Erin punched the monitor,Sensible,edin_semantics,emo_sem_emo_sem,0.832056326442398,2,2,2,1,956690.613310977,125,A
31,3,21/7/91,21,f,120,Jack cleaned the bath,Sensible,edin_semantics,emo_sem_emo_sem,0.973511594696902,2,1,1,1,956692.330432833,80,A
31,3,21/7/91,21,f,121,Zoe paid the debt,Sensible,edin_semantics,emo_sem_emo_sem,1.13779262651224,1,1,1,1,956694.212218663,134,A
31,3,21/7/91,21,f,122,The wall punched Jane,Non-sensible,edin_semantics,emo_sem_emo_sem,0.949955227202736,1,1,1,1,956695.905930401,50,A
31,3,21/7/91,21,f,123,John carried the kettle,Sensible,edin_semantics,emo_sem_emo_sem,1.46736977424007,1,2,2,1,956698.116975222,105,A
31,3,21/7/91,21,f,124,The papers filed Lara,Non-sensible,edin_semantics,emo_sem_emo_sem,2.94872012792621,1,1,1,1,956701.810056421,24,A
31,3,21/7/91,21,f,125,Luke read the poster,Sensible,edin_semantics,emo_sem_emo_sem,1.0549267984461,2,2,2,1,956703.609426075,79,A
31,3,21/7/91,21,f,126,The fence jumped Jon,Non-sensible,edin_semantics,emo_sem_emo_sem,0.948464192100801,2,2,2,1,956705.303010807,17,A
31,3,21/7/91,21,f,127,Max kicked the door,Sensible,edin_semantics,emo_sem_emo_sem,1.14861345593818,1,1,1,1,956707.196555898,114,A
31,3,21/7/91,21,f,128,Fred stored the rice,Sensible,edin_semantics,emo_sem_emo_sem,0.925701931584626,2,2,2,1,956708.866647124,127,A
31,3,21/7/91,21,f,129,The laptop fixed Jen,Non-sensible,edin_semantics,emo_sem_emo_sem,1.32542283949442,1,2,2,1,956710.93662443,37,A
31,3,21/7/91,21,f,130,Tim sniffed the perfume,Sensible,edin_semantics,emo_sem_emo_sem,0.808007651125081,1,2,2,1,956712.489140684,93,A
31,3,21/7/91,21,f,131,Amy lifted the crate,Sensible,edin_semantics,emo_sem_emo_sem,0.902274173451588,2,1,1,1,956714.135718198,144,A
31,3,21/7/91,21,f,132,Rose built the shed,Sensible,edin_semantics,emo_sem_emo_sem,0.761164322379045,2,2,2,1,956715.641104078,121,A
31,3,21/7/91,21,f,133,The eggs whisked Dan,Non-sensible,edin_semantics,emo_sem_emo_sem,1.12565106514376,2,1,1,1,956717.511129364,62,A
31,3,21/7/91,21,f,134,The bushes trimmed Jon,Non-sensible,edin_semantics,emo_sem_emo_sem,0.772843723883852,2,1,1,1,956719.02834378,32,A
31,3,21/7/91,21,f,135,Lucy wiped the desk,Sensible,edin_semantics,emo_sem_emo_sem,1.00775954080746,2,2,2,1,956720.780750476,115,A
31,3,21/7/91,21,f,136,Jane licked the plate,Sensible,edin_semantics,emo_sem_emo_sem,0.961270930245519,2,1,1,1,956722.486089979,96,A
31,3,21/7/91,21,f,137,The thread measured Amy,Non-sensible,edin_semantics,emo_sem_emo_sem,0.985232369275764,1,2,2,1,956724.215024978,51,A
31,3,21/7/91,21,f,138,Hugh kissed the rose,Sensible,edin_semantics,emo_sem_emo_sem,1.06703147699591,1,1,1,1,956726.026221886,98,A
31,3,21/7/91,21,f,139,The wine stored Leo,Non-sensible,edin_semantics,emo_sem_emo_sem,1.31408372381702,2,1,1,1,956728.084424536,52,A
31,3,21/7/91,21,f,140,Andy pulled the rope,Sensible,edin_semantics,emo_sem_emo_sem,1.60791740007699,2,1,1,1,956730.4366735,148,A
31,3,21/7/91,21,f,141,The lorry dented Lily,Non-sensible,edin_semantics,emo_sem_emo_sem,1.11418077419512,1,2,1,0,956732.294914508,71,A
31,3,21/7/91,21,f,142,Luke watered the plants,Sensible,edin_semantics,emo_sem_emo_sem,0.89104442379903,1,2,1,0,956733.929711274,129,A
31,3,21/7/91,21,f,143,The number dialed Tom,Non-sensible,edin_semantics,emo_sem_emo_sem,0.785308572812937,1,2,1,0,956735.45866667,63,A
31,3,21/7/91,21,f,144,Ian filed the report,Sensible,edin_semantics,emo_sem_emo_sem,1.51401136897039,2,2,2,1,956737.716844432,99,A
31,3,21/7/91,21,f,145,The house built Kate,Non-sensible,edin_semantics,emo_sem_emo_sem,1.64367722824682,2,1,1,1,956740.104344881,46,A
31,3,21/7/91,21,f,146,Dan brushed the hair,Sensible,edin_semantics,emo_sem_emo_sem,1.43207146448549,1,2,2,1,956742.280146236,147,A
31,3,21/7/91,21,f,147,The bowl scrubbed Liz,Non-sensible,edin_semantics,emo_sem_emo_sem,1.64377985917963,1,1,1,1,956744.667679078,56,A
31,3,21/7/91,21,f,148,Josh taught the rules,Sensible,edin_semantics,emo_sem_emo_sem,1.31435024354141,2,1,1,1,956746.725916366,90,A
31,3,21/7/91,21,f,149,The bucket lent Max,Non-sensible,edin_semantics,emo_sem_emo_sem,1.73763842345215,1,2,2,1,956749.207472623,19,A
31,3,21/7/91,21,f,150,The garden watered Jeff,Non-sensible,edin_semantics,emo_sem_emo_sem,0.950050802319311,2,1,1,1,956750.901127914,54,A
31,3,21/7/91,21,f,151,The handle pulled Tim,Non-sensible,edin_semantics,emo_sem_emo_sem,1.17204891145229,2,2,2,1,956752.818217506,73,A
31,3,21/7/91,21,f,152,The toffee chewed Ben,Non-sensible,edin_semantics,emo_sem_emo_sem,1.37208047031891,1,2,1,0,956754.935188879,31,A
31,3,21/7/91,21,f,153,Eve typed the message,Sensible,edin_semantics,emo_sem_emo_sem,1.13682340551168,2,1,1,1,956756.816976634,124,A
31,3,21/7/91,21,f,154,Mike ate the steak,Sensible,edin_semantics,emo_sem_emo_sem,2.08961958566215,1,1,1,1,956759.651415601,142,A
31,3,21/7/91,21,f,155,The potatoes mashed Will,Non-sensible,edin_semantics,emo_sem_emo_sem,1.03151186916512,2,1,1,1,956761.427366477,28,A
31,3,21/7/91,21,f,156,Adam watched the opera,Sensible,edin_semantics,emo_sem_emo_sem,1.1487475176109,2,1,1,1,956763.320925038,108,A
31,3,21/7/91,21,f,157,Kate hugged the pillow,Sensible,edin_semantics,emo_sem_emo_sem,0.984200286795385,2,1,1,1,956765.049798779,86,A
31,3,21/7/91,21,f,158,The room entered Ryan,Non-sensible,edin_semantics,emo_sem_emo_sem,1.38375506096054,1,1,1,1,956767.178551865,58,A
31,3,21/7/91,21,f,159,Ella mashed the turnip,Sensible,edin_semantics,emo_sem_emo_sem,0.960394397843629,2,2,2,1,956768.883921836,103,A
31,3,21/7/91,21,f,160,The museum visited Mary,Non-sensible,edin_semantics,emo_sem_emo_sem,2.66565147566143,1,1,1,1,956772.294673967,16,A
31,3,21/7/91,21,f,161,The letter typed Phil,Non-sensible,edin_semantics,emo_sem_emo_sem,1.30162208213005,2,2,2,1,956774.341117356,49,A
31,3,21/7/91,21,f,162,The bike kicked Matt,Non-sensible,edin_semantics,emo_sem_emo_sem,0.901644917437807,2,2,2,1,956775.987691663,39,A
31,3,21/7/91,21,f,163,The table wiped Beth,Non-sensible,edin_semantics,emo_sem_emo_sem,0.889890467165969,2,1,1,1,956777.622486504,40,A
31,3,21/7/91,21,f,164,The scarf knitted Tom,Non-sensible,edin_semantics,emo_sem_emo_sem,1.33725265937392,2,1,1,1,956779.704207676,66,A
31,3,21/7/91,21,f,165,Beth washed the pan,Sensible,edin_semantics,emo_sem_emo_sem,0.784358915756457,2,1,1,1,956781.233179109,132,A
31,3,21/7/91,21,f,166,The paper cut Jon,Non-sensible,edin_semantics,emo_sem_emo_sem,0.878536277450621,2,1,1,1,956782.856205708,20,A
31,3,21/7/91,21,f,167,The room searched Jen,Non-sensible,edin_semantics,emo_sem_emo_sem,0.937097173533402,2,1,1,1,956784.538061327,10,A
31,3,21/7/91,21,f,168,Liam sliced the onion,Sensible,edin_semantics,emo_sem_emo_sem,1.05468721943907,2,1,1,1,956786.337530725,78,A
31,3,21/7/91,21,f,169,The cake iced Mary,Non-sensible,edin_semantics,emo_sem_emo_sem,0.984478352591395,1,1,1,1,956788.066423389,44,A
31,3,21/7/91,21,f,170,The herbs chopped Phil,Non-sensible,edin_semantics,emo_sem_emo_sem,0.937147847609594,2,2,2,1,956789.748282215,27,A
31,3,21/7/91,21,f,171,The towels passed Phil,Non-sensible,edin_semantics,emo_sem_emo_sem,0.972299587447196,2,2,2,1,956791.465383224,43,A
31,3,21/7/91,21,f,172,The photo took Beth,Non-sensible,edin_semantics,emo_sem_emo_sem,0.854703127173707,2,2,2,1,956793.064907658,53,A
31,3,21/7/91,21,f,173,Erin tidied the garage,Sensible,edin_semantics,emo_sem_emo_sem,0.960456938599236,1,2,2,1,956794.770276347,77,A
