subject_column,AssignedList_column,subject_dob_column,subject_age_column,subject_gender_column,trialnum_column,Stim_column,Type_column,Experiment_column,OrderGroup_column,ReactionTime_column,StimSide_column,StimPosition_column,Response_column,Valid_column,TrialEndSecs_column,PairID_column,List_column
32,4,6/4/96,20,f,1,Matt kicked the bike,Sensible,edin_semantics,sem_emo_sem_emo,2.53162444254849,2,1,1,1,960567.599759523,39,B
32,4,6/4/96,20,f,2,The hospital visited Tom,Non-sensible,edin_semantics,sem_emo_sem_emo,3.78386692877393,2,1,1,1,960572.127828445,91,B
32,4,6/4/96,20,f,3,Lily got the kettle,Sensible,edin_semantics,sem_emo_sem_emo,1.89049117884133,1,1,1,1,960574.762305771,13,B
32,4,6/4/96,20,f,4,The kettle carried John,Non-sensible,edin_semantics,sem_emo_sem_emo,0.937795705394819,1,1,1,1,960576.444157541,105,B
32,4,6/4/96,20,f,5,Mark washed the dishes,Sensible,edin_semantics,sem_emo_sem_emo,1.61953329853714,2,1,1,1,960578.808154862,57,B
32,4,6/4/96,20,f,6,Jeff watered the garden,Sensible,edin_semantics,sem_emo_sem_emo,1.54987703531515,2,2,2,1,960581.101623557,54,B
32,4,6/4/96,20,f,7,Beth wiped the table,Sensible,edin_semantics,sem_emo_sem_emo,3.19585127232131,2,2,2,1,960585.04157355,40,B
32,4,6/4/96,20,f,8,Ella watched the movie,Sensible,edin_semantics,sem_emo_sem_emo,2.52554804924876,2,1,1,1,960588.311259769,33,B
32,4,6/4/96,20,f,9,Joe solved the puzzle,Sensible,edin_semantics,sem_emo_sem_emo,1.9019826373551,1,2,2,1,960590.957450493,34,B
32,4,6/4/96,20,f,10,The message typed Eve,Non-sensible,edin_semantics,sem_emo_sem_emo,1.43228346155956,2,2,2,1,960593.133289373,124,B
32,4,6/4/96,20,f,11,Jen weighed the flour,Sensible,edin_semantics,sem_emo_sem_emo,2.34959948272444,2,2,2,1,960596.226486609,64,B
32,4,6/4/96,20,f,12,Max kissed the mirror,Sensible,edin_semantics,sem_emo_sem_emo,2.56161416671239,2,1,1,1,960599.531532396,23,B
32,4,6/4/96,20,f,13,The poster read Luke,Non-sensible,edin_semantics,sem_emo_sem_emo,1.39555024297442,2,1,1,1,960601.671903304,79,B
32,4,6/4/96,20,f,14,Sean read the book,Sensible,edin_semantics,sem_emo_sem_emo,3.98377148190048,2,2,2,1,960606.399903399,4,B
32,4,6/4/96,20,f,15,Phil passed the towels,Sensible,edin_semantics,sem_emo_sem_emo,2.93650415912271,1,1,1,1,960610.081144835,43,B
32,4,6/4/96,20,f,16,The hair brushed Dan,Non-sensible,edin_semantics,sem_emo_sem_emo,1.4084859113209,1,1,1,1,960612.233464231,147,B
32,4,6/4/96,20,f,17,The office entered Joe,Non-sensible,edin_semantics,sem_emo_sem_emo,2.00695356715005,1,1,1,1,960614.985809989,133,B
32,4,6/4/96,20,f,18,Erin posted the card,Sensible,edin_semantics,sem_emo_sem_emo,1.34807509242091,2,2,2,1,960617.079178491,36,B
32,4,6/4/96,20,f,19,The ice crushed Josh,Non-sensible,edin_semantics,sem_emo_sem_emo,1.4542416727636,2,1,1,1,960619.278511197,81,B
32,4,6/4/96,20,f,20,The ribbon cut Lucy,Non-sensible,edin_semantics,sem_emo_sem_emo,1.80425745225511,1,1,1,1,960621.818784862,95,B
32,4,6/4/96,20,f,21,Bill counted the sheets,Sensible,edin_semantics,sem_emo_sem_emo,1.20935942896176,2,2,2,1,960623.77114871,48,B
32,4,6/4/96,20,f,22,The shed built Rose,Non-sensible,edin_semantics,sem_emo_sem_emo,1.06825406802818,1,1,1,1,960625.582379614,121,B
32,4,6/4/96,20,f,23,Carl brushed the teeth,Sensible,edin_semantics,sem_emo_sem_emo,1.08011788444128,1,2,2,1,960627.405337386,72,B
32,4,6/4/96,20,f,24,The monitor punched Erin,Non-sensible,edin_semantics,sem_emo_sem_emo,2.94954855216201,2,1,1,1,960631.098357969,125,B
32,4,6/4/96,20,f,25,Tim cleaned the floor,Sensible,edin_semantics,sem_emo_sem_emo,1.52640148962382,2,1,1,1,960633.368261637,5,B
32,4,6/4/96,20,f,26,Ryan painted the picture,Sensible,edin_semantics,sem_emo_sem_emo,1.45554284076206,2,1,1,1,960635.567606852,35,B
32,4,6/4/96,20,f,27,The car lent Fred,Non-sensible,edin_semantics,sem_emo_sem_emo,6.06605712440796,2,2,2,1,960642.377331647,94,B
32,4,6/4/96,20,f,28,The house dusted Alex,Non-sensible,edin_semantics,sem_emo_sem_emo,0.984636468347162,1,2,2,1,960644.106242271,122,B
32,4,6/4/96,20,f,29,The ticket took Tim,Non-sensible,edin_semantics,sem_emo_sem_emo,3.8670576477889,2,2,2,1,960648.716631152,128,B
32,4,6/4/96,20,f,30,Will licked the spoon,Sensible,edin_semantics,sem_emo_sem_emo,1.70249373954721,1,1,1,1,960651.163038556,21,B
32,4,6/4/96,20,f,31,The crate lifted Amy,Non-sensible,edin_semantics,sem_emo_sem_emo,2.92569519637618,1,2,2,1,960654.832422911,144,B
32,4,6/4/96,20,f,32,The box labeled Ian,Non-sensible,edin_semantics,sem_emo_sem_emo,1.9851201166166,1,2,2,1,960657.561025001,136,B
32,4,6/4/96,20,f,33,The opera watched Adam,Non-sensible,edin_semantics,sem_emo_sem_emo,1.83205279847607,2,2,2,1,960660.136715643,108,B
32,4,6/4/96,20,f,34,Beth took the photo,Sensible,edin_semantics,sem_emo_sem_emo,3.38477303169202,2,1,1,1,960664.264846849,53,B
32,4,6/4/96,20,f,35,Leo stored the wine,Sensible,edin_semantics,sem_emo_sem_emo,6.93627612595446,2,2,2,1,960671.944931122,52,B
32,4,6/4/96,20,f,36,The steak ate Mike,Non-sensible,edin_semantics,sem_emo_sem_emo,1.92518621112686,1,2,2,1,960674.614731774,142,B
32,4,6/4/96,20,f,37,Luke climbed the hill,Sensible,edin_semantics,sem_emo_sem_emo,1.76121756213252,2,2,2,1,960677.119851134,68,B
32,4,6/4/96,20,f,38,Phil chopped the herbs,Sensible,edin_semantics,sem_emo_sem_emo,1.71377095591743,1,1,1,1,960679.577928317,27,B
32,4,6/4/96,20,f,39,The hair trimmed Bill,Non-sensible,edin_semantics,sem_emo_sem_emo,2.77269298466854,1,1,1,1,960683.094529835,107,B
32,4,6/4/96,20,f,40,The wallet carried Leo,Non-sensible,edin_semantics,sem_emo_sem_emo,2.39592195942532,1,2,2,1,960686.234774379,150,B
32,4,6/4/96,20,f,41,Lara filed the papers,Sensible,edin_semantics,sem_emo_sem_emo,1.52581392752472,1,2,2,1,960688.504679009,24,B
32,4,6/4/96,20,f,42,The bed sold Jay,Non-sensible,edin_semantics,sem_emo_sem_emo,2.03132071904838,1,1,1,1,960691.280284147,113,B
32,4,6/4/96,20,f,43,Hugh pulled the lever,Sensible,edin_semantics,sem_emo_sem_emo,3.63084066298325,2,1,1,1,960695.655474976,45,B
32,4,6/4/96,20,f,44,Amy hugged the tree,Sensible,edin_semantics,sem_emo_sem_emo,2.21965844416991,1,1,1,1,960698.61928506,11,B
32,4,6/4/96,20,f,45,The report filed Ian,Non-sensible,edin_semantics,sem_emo_sem_emo,2.84314463776536,2,1,1,1,960702.206437654,99,B
32,4,6/4/96,20,f,46,The debt paid Zoe,Non-sensible,edin_semantics,sem_emo_sem_emo,5.12476811825763,2,2,2,1,960708.075257668,134,B
32,4,6/4/96,20,f,47,The radio fixed Luke,Non-sensible,edin_semantics,sem_emo_sem_emo,1.89024903392419,1,2,2,1,960710.709768349,112,B
32,4,6/4/96,20,f,48,The bowl dented Ian,Non-sensible,edin_semantics,sem_emo_sem_emo,2.47911748930346,2,2,2,1,960713.93234055,146,B
32,4,6/4/96,20,f,49,Kate built the house,Sensible,edin_semantics,sem_emo_sem_emo,1.80801727273501,2,2,2,1,960716.48454827,46,B
32,4,6/4/96,20,f,50,The internet searched Max,Non-sensible,edin_semantics,sem_emo_sem_emo,2.40817737707403,2,1,1,1,960719.636566507,85,B
32,4,6/4/96,20,f,51,Matt drank the juice,Sensible,edin_semantics,sem_emo_sem_emo,3.85485996003263,1,2,2,1,960724.235122362,60,B
32,4,6/4/96,20,f,52,Jen fixed the laptop,Sensible,edin_semantics,sem_emo_sem_emo,1.2557261652546,1,1,1,1,960726.234633903,37,B
32,4,6/4/96,20,f,53,The fat chewed Adam,Non-sensible,edin_semantics,sem_emo_sem_emo,4.94881442014594,2,2,2,1,960731.926934786,106,B
32,4,6/4/96,20,f,54,Liz scrubbed the bowl,Sensible,edin_semantics,sem_emo_sem_emo,1.27864173066337,1,2,2,1,960733.949894932,56,B
32,4,6/4/96,20,f,55,Jon polished the coins,Sensible,edin_semantics,sem_emo_sem_emo,1.20873305946589,1,1,1,1,960735.902239215,29,B
32,4,6/4/96,20,f,56,The pan washed Beth,Non-sensible,edin_semantics,sem_emo_sem_emo,4.11324234236963,1,2,2,1,960740.759614916,132,B
32,4,6/4/96,20,f,57,Matt pushed the trolley,Sensible,edin_semantics,sem_emo_sem_emo,1.8786575102713,2,2,2,1,960743.382365374,26,B
32,4,6/4/96,20,f,58,The beer drank Jack,Non-sensible,edin_semantics,sem_emo_sem_emo,1.45542257011402,1,1,1,1,960745.581665367,135,B
32,4,6/4/96,20,f,59,The lemon squeezed Jay,Non-sensible,edin_semantics,sem_emo_sem_emo,1.62012310582213,2,2,2,1,960747.945671989,76,B
32,4,6/4/96,20,f,60,Ben chewed the toffee,Sensible,edin_semantics,sem_emo_sem_emo,1.2671499515418,1,1,1,1,960749.956831501,31,B
32,4,6/4/96,20,f,61,Rob mailed the parcel,Sensible,edin_semantics,sem_emo_sem_emo,1.63172296830453,1,2,2,1,960752.332572047,14,B
32,4,6/4/96,20,f,62,Kate served the dish,Sensible,edin_semantics,sem_emo_sem_emo,2.29045359033626,2,2,2,1,960755.366957583,70,B
32,4,6/4/96,20,f,63,The dessert served Fred,Non-sensible,edin_semantics,sem_emo_sem_emo,1.07915796444286,2,1,1,1,960757.18997982,145,B
32,4,6/4/96,20,f,64,The trousers ironed Eve,Non-sensible,edin_semantics,sem_emo_sem_emo,0.797059815959074,1,2,2,1,960758.730658878,130,B
32,4,6/4/96,20,f,65,The gift posted Jack,Non-sensible,edin_semantics,sem_emo_sem_emo,1.20864870969672,1,1,1,1,960760.683036195,111,B
32,4,6/4/96,20,f,66,The perfume sniffed Tim,Non-sensible,edin_semantics,sem_emo_sem_emo,3.01970610348508,1,1,1,1,960764.446627419,93,B
32,4,6/4/96,20,f,67,Josh ironed the shirt,Sensible,edin_semantics,sem_emo_sem_emo,2.27848169056233,2,1,1,1,960767.469245675,55,B
32,4,6/4/96,20,f,68,The trophy polished Anna,Non-sensible,edin_semantics,sem_emo_sem_emo,3.25473705946933,1,2,2,1,960771.468026291,104,B
32,4,6/4/96,20,f,69,Ryan carried the gun,Sensible,edin_semantics,sem_emo_sem_emo,0.949549514334649,1,1,1,1,960773.161643417,75,B
32,4,6/4/96,20,f,70,The sugar weighed Liz,Non-sensible,edin_semantics,sem_emo_sem_emo,2.51424838230014,1,1,1,1,960776.419474799,139,B
32,4,6/4/96,20,f,71,The party cancelled Phil,Non-sensible,edin_semantics,sem_emo_sem_emo,1.76121916586999,2,2,2,1,960778.924599611,82,B
32,4,6/4/96,20,f,72,Jack mixed the fruits,Sensible,edin_semantics,sem_emo_sem_emo,1.78453178470954,1,2,2,1,960781.453285601,8,B
32,4,6/4/96,20,f,73,The gum swallowed Owen,Non-sensible,edin_semantics,sem_emo_sem_emo,1.6552597717382,1,1,1,1,960783.85255814,97,B
32,4,6/4/96,20,f,74,The nuts mixed Liam,Non-sensible,edin_semantics,sem_emo_sem_emo,1.57306778011844,2,1,1,1,960786.169480893,83,B
32,4,6/4/96,20,f,75,The carrots grated Tom,Non-sensible,edin_semantics,sem_emo_sem_emo,1.87868765811436,2,2,2,1,960788.7922445,140,B
32,4,6/4/96,20,f,76,Tom knitted the scarf,Sensible,edin_semantics,sem_emo_sem_emo,7.7478575790301,2,2,2,1,960797.283832932,66,B
32,4,6/4/96,20,f,77,Jen searched the room,Sensible,edin_semantics,sem_emo_sem_emo,1.46682198147755,2,2,2,1,960799.494901166,10,B
32,4,6/4/96,20,f,78,The problem solved Phil,Non-sensible,edin_semantics,sem_emo_sem_emo,1.37262313149404,2,1,1,1,960801.611910064,109,B
32,4,6/4/96,20,f,79,The button pushed Ian,Non-sensible,edin_semantics,sem_emo_sem_emo,1.48988636187278,2,1,1,1,960803.84652761,101,B
32,4,6/4/96,20,f,80,The hedge jumped Sara,Non-sensible,edin_semantics,sem_emo_sem_emo,2.50167865736876,2,2,2,1,960807.092635011,92,B
32,4,6/4/96,20,f,81,John described the pen,Sensible,edin_semantics,sem_emo_sem_emo,1.32525510212872,1,2,2,1,960809.162597243,42,B
32,4,6/4/96,20,f,82,Tim pulled the handle,Sensible,edin_semantics,sem_emo_sem_emo,1.89072273985948,2,1,1,1,960811.797089964,73,B
32,4,6/4/96,20,f,83,Leah sucked the lolly,Sensible,edin_semantics,sem_emo_sem_emo,2.31348301202524,1,2,2,1,960814.855012944,12,B
32,4,6/4/96,20,f,84,Ian cancelled the plans,Sensible,edin_semantics,sem_emo_sem_emo,1.04370057675987,1,1,1,1,960816.642729496,7,B
32,4,6/4/96,20,f,85,Jane punched the wall,Sensible,edin_semantics,sem_emo_sem_emo,2.33736523264088,1,2,2,1,960819.724119362,50,B
32,4,6/4/96,20,f,86,The report wrote Alex,Non-sensible,edin_semantics,sem_emo_sem_emo,1.96139986044727,2,1,1,1,960822.429189459,149,B
32,4,6/4/96,20,f,87,The desk wiped Lucy,Non-sensible,edin_semantics,sem_emo_sem_emo,1.58418206986971,1,1,1,1,960824.757919902,115,B
32,4,6/4/96,20,f,88,The church described Erin,Non-sensible,edin_semantics,sem_emo_sem_emo,1.10234774695709,1,1,1,1,960826.604426986,117,B
32,4,6/4/96,20,f,89,Amy measured the thread,Sensible,edin_semantics,sem_emo_sem_emo,1.60794369922951,1,1,1,1,960828.956632653,51,B
32,4,6/4/96,20,f,90,The sweets offered Tom,Non-sensible,edin_semantics,sem_emo_sem_emo,1.79628559364937,1,2,2,1,960831.497113505,84,B
32,4,6/4/96,20,f,91,Mike paid the bill,Sensible,edin_semantics,sem_emo_sem_emo,4.99515389511362,2,1,1,1,960837.236514935,59,B
32,4,6/4/96,20,f,92,Carl sold the sofa,Sensible,edin_semantics,sem_emo_sem_emo,2.76090485858731,2,2,2,1,960840.74136072,38,B
32,4,6/4/96,20,f,93,Josh squeezed the ball,Sensible,edin_semantics,sem_emo_sem_emo,1.7729389781598,1,1,1,1,960843.258246396,1,B
32,4,6/4/96,20,f,94,The socks knitted Ryan,Non-sensible,edin_semantics,sem_emo_sem_emo,1.52566126396414,2,1,1,1,960845.528151989,141,B
32,4,6/4/96,20,f,95,Tim ate the ham,Sensible,edin_semantics,sem_emo_sem_emo,2.09092748863623,2,1,1,1,960848.362596088,67,B
32,4,6/4/96,20,f,96,The bath cleaned Jack,Non-sensible,edin_semantics,sem_emo_sem_emo,4.29019637138117,2,2,2,1,960853.396377063,80,B
32,4,6/4/96,20,f,97,Dan whisked the eggs,Sensible,edin_semantics,sem_emo_sem_emo,1.33767729497049,1,2,2,1,960855.478122611,62,B
32,4,6/4/96,20,f,98,The stairs climbed Ben,Non-sensible,edin_semantics,sem_emo_sem_emo,2.31429700367153,1,1,1,1,960858.536034366,143,B
32,4,6/4/96,20,f,99,Matt offered the money,Sensible,edin_semantics,sem_emo_sem_emo,1.82008506823331,2,1,1,1,960861.099945541,9,B
32,4,6/4/96,20,f,100,Eve taught the lesson,Sensible,edin_semantics,sem_emo_sem_emo,1.80829790432472,1,1,1,1,960863.65213915,15,B
32,4,6/4/96,20,f,101,Lily dented the lorry,Sensible,edin_semantics,sem_emo_sem_emo,3.46665135759395,2,1,1,1,960867.862648687,71,B
32,4,6/4/96,20,f,102,The pot scrubbed Josh,Non-sensible,edin_semantics,sem_emo_sem_emo,1.42034523771144,1,1,1,1,960870.026694629,131,B
32,4,6/4/96,20,f,103,The cream whisked Tom,Non-sensible,edin_semantics,sem_emo_sem_emo,2.41958673088811,2,1,1,1,960873.190421775,137,B
32,4,6/4/96,20,f,104,The invite mailed Ian,Non-sensible,edin_semantics,sem_emo_sem_emo,2.00795037019998,2,1,1,1,960875.942555857,89,B
32,4,6/4/96,20,f,105,The candy sucked Sam,Non-sensible,edin_semantics,sem_emo_sem_emo,1.34937433619052,1,1,1,1,960878.036052326,87,B
32,4,6/4/96,20,f,106,The salt passed Leo,Non-sensible,edin_semantics,sem_emo_sem_emo,1.56163533427753,2,2,2,1,960880.341244362,118,B
32,4,6/4/96,20,f,107,Joe wore the jumper,Sensible,edin_semantics,sem_emo_sem_emo,1.38480606605299,1,1,1,1,960882.470023105,25,B
32,4,6/4/96,20,f,108,The plants watered Luke,Non-sensible,edin_semantics,sem_emo_sem_emo,3.26724841305986,1,1,1,1,960886.480978958,129,B
32,4,6/4/96,20,f,109,The rope pulled Andy,Non-sensible,edin_semantics,sem_emo_sem_emo,1.98488502774853,1,2,2,1,960889.209188164,148,B
32,4,6/4/96,20,f,110,Ewan wrote the story,Sensible,edin_semantics,sem_emo_sem_emo,4.05471127352212,2,2,2,1,960894.007729393,74,B
32,4,6/4/96,20,f,111,Mary visited the museum,Sensible,edin_semantics,sem_emo_sem_emo,1.92529814294539,1,2,2,1,960896.677539667,16,B
32,4,6/4/96,20,f,112,Jon jumped the fence,Sensible,edin_semantics,sem_emo_sem_emo,1.16176272497978,1,1,1,1,960898.582824776,17,B
32,4,6/4/96,20,f,113,Liz sliced the tomato,Sensible,edin_semantics,sem_emo_sem_emo,1.29104179388378,1,1,1,1,960900.617727635,3,B
32,4,6/4/96,20,f,114,The hotline dialed Hugh,Non-sensible,edin_semantics,sem_emo_sem_emo,13.0291782981949,2,2,2,1,960914.390038961,138,B
32,4,6/4/96,20,f,115,The curtains measured Rob,Non-sensible,edin_semantics,sem_emo_sem_emo,1.74520585197024,1,2,2,1,960916.871606444,126,B
32,4,6/4/96,20,f,116,The portrait painted Jay,Non-sensible,edin_semantics,sem_emo_sem_emo,1.92430775426328,2,2,2,1,960919.541255395,110,B
32,4,6/4/96,20,f,117,Will mashed the potatoes,Sensible,edin_semantics,sem_emo_sem_emo,1.12574728159234,1,2,2,1,960921.411280039,28,B
32,4,6/4/96,20,f,118,Liz labeled the jar,Sensible,edin_semantics,sem_emo_sem_emo,2.10201932804193,2,1,1,1,960924.257482117,61,B
32,4,6/4/96,20,f,119,Luke swallowed the pill,Sensible,edin_semantics,sem_emo_sem_emo,7.4887494033901,2,2,2,1,960932.490331524,22,B
32,4,6/4/96,20,f,120,The plate licked Jane,Non-sensible,edin_semantics,sem_emo_sem_emo,1.66675283387303,2,2,2,1,960934.901381926,96,B
32,4,6/4/96,20,f,121,The shoes counted Lucy,Non-sensible,edin_semantics,sem_emo_sem_emo,3.54783179296646,2,1,1,1,960939.194186406,123,B
32,4,6/4/96,20,f,122,Mary iced the cake,Sensible,edin_semantics,sem_emo_sem_emo,1.13736767030787,1,2,2,1,960941.075963256,44,B
32,4,6/4/96,20,f,123,Phil typed the letter,Sensible,edin_semantics,sem_emo_sem_emo,4.31305484857876,2,1,1,1,960946.13327013,49,B
32,4,6/4/96,20,f,124,Jon cut the paper,Sensible,edin_semantics,sem_emo_sem_emo,2.06656835472677,1,2,2,1,960948.944207574,20,B
32,4,6/4/96,20,f,125,Ryan entered the room,Sensible,edin_semantics,sem_emo_sem_emo,2.96007399691734,2,2,2,1,960952.648990625,58,B
32,4,6/4/96,20,f,126,Kate lifted the box,Sensible,edin_semantics,sem_emo_sem_emo,1.09039765642956,1,1,1,1,960954.483702206,69,B
32,4,6/4/96,20,f,127,Tom dialed the number,Sensible,edin_semantics,sem_emo_sem_emo,4.4895236256998,2,1,1,1,960959.717455086,63,B
32,4,6/4/96,20,f,128,The onion sliced Liam,Non-sensible,edin_semantics,sem_emo_sem_emo,1.86656598141417,1,2,2,1,960962.328443717,78,B
32,4,6/4/96,20,f,129,The blanket stroked Ryan,Non-sensible,edin_semantics,sem_emo_sem_emo,5.70061078236904,2,2,2,1,960968.773554443,116,B
32,4,6/4/96,20,f,130,The pillow hugged Kate,Non-sensible,edin_semantics,sem_emo_sem_emo,3.2424377030693,1,2,2,1,960972.760632887,86,B
32,4,6/4/96,20,f,131,Andy grated the cheese,Sensible,edin_semantics,sem_emo_sem_emo,1.07854089594912,1,1,1,1,960974.583577189,65,B
32,4,6/4/96,20,f,132,The rose kissed Hugh,Non-sensible,edin_semantics,sem_emo_sem_emo,1.31431303976569,1,2,2,1,960976.641778556,98,B
32,4,6/4/96,20,f,133,The rope pulled Emma,Non-sensible,edin_semantics,sem_emo_sem_emo,3.34823962266091,2,2,2,1,960980.734665013,120,B
32,4,6/4/96,20,f,134,Jon trimmed the bushes,Sensible,edin_semantics,sem_emo_sem_emo,1.03163438488264,1,2,2,1,960982.510613643,32,B
32,4,6/4/96,20,f,135,The rules taught Josh,Non-sensible,edin_semantics,sem_emo_sem_emo,1.20824043091852,2,2,2,1,960984.462975887,90,B
32,4,6/4/96,20,f,136,The rice stored Fred,Non-sensible,edin_semantics,sem_emo_sem_emo,1.1366454049712,1,1,1,1,960986.344744077,127,B
32,4,6/4/96,20,f,137,The donut iced Joe,Non-sensible,edin_semantics,sem_emo_sem_emo,1.61992265470326,1,1,1,1,960988.708733059,119,B
32,4,6/4/96,20,f,138,The door kicked Max,Non-sensible,edin_semantics,sem_emo_sem_emo,1.20801336003933,1,2,2,1,960990.661104925,114,B
32,4,6/4/96,20,f,139,The garage tidied Erin,Non-sensible,edin_semantics,sem_emo_sem_emo,1.52565260452684,2,1,1,1,960992.931019177,77,B
32,4,6/4/96,20,f,140,Phil sniffed the milk,Sensible,edin_semantics,sem_emo_sem_emo,0.866611844627187,1,2,2,1,960994.542281063,18,B
32,4,6/4/96,20,f,141,Jake dusted the shelf,Sensible,edin_semantics,sem_emo_sem_emo,2.20800534193404,2,1,1,1,960997.494350487,47,B
32,4,6/4/96,20,f,142,The dress wore Kate,Non-sensible,edin_semantics,sem_emo_sem_emo,1.36162237718236,2,2,2,1,960999.599586012,100,B
32,4,6/4/96,20,f,143,The turnip mashed Ella,Non-sensible,edin_semantics,sem_emo_sem_emo,1.32550686865579,2,1,1,1,961001.669558507,103,B
32,4,6/4/96,20,f,144,Max lent the bucket,Sensible,edin_semantics,sem_emo_sem_emo,1.34987209620886,1,1,1,1,961003.76305658,19,B
32,4,6/4/96,20,f,145,Sam tidied the room,Sensible,edin_semantics,sem_emo_sem_emo,1.09023344691377,1,2,2,1,961005.597825571,2,B
32,4,6/4/96,20,f,146,Dan carried the folder,Sensible,edin_semantics,sem_emo_sem_emo,5.93637907772791,1,2,2,1,961012.278126652,30,B
32,4,6/4/96,20,f,147,The carrots chopped Fred,Non-sensible,edin_semantics,sem_emo_sem_emo,1.79607520019636,1,2,2,1,961014.818591467,102,B
32,4,6/4/96,20,f,148,The radio got Ben,Non-sensible,edin_semantics,sem_emo_sem_emo,3.04280512186233,1,2,2,1,961018.605686139,88,B
32,4,6/4/96,20,f,149,Erin crushed the garlic,Sensible,edin_semantics,sem_emo_sem_emo,5.94793756701984,2,2,2,1,961025.297746802,6,B
32,4,6/4/96,20,f,150,Rob stroked the fur,Sensible,edin_semantics,sem_emo_sem_emo,1.60786383948289,2,1,1,1,961027.650012123,41,B
32,4,6/4/96,20,f,151,The towels passed Phil,Non-sensible,edin_semantics,sem_emo_sem_emo,1.4727652752772,1,2,2,1,961049.490507279,43,A
32,4,6/4/96,20,f,152,The thread measured Amy,Non-sensible,edin_semantics,sem_emo_sem_emo,3.0309890928911,2,2,2,1,961053.265845576,51,A
32,4,6/4/96,20,f,153,The papers filed Lara,Non-sensible,edin_semantics,sem_emo_sem_emo,2.17229843279347,1,1,1,1,961056.182620219,24,A
32,4,6/4/96,20,f,154,The movie watched Ella,Non-sensible,edin_semantics,sem_emo_sem_emo,4.30129847384524,1,2,2,1,961061.22824224,33,A
32,4,6/4/96,20,f,155,Ian mailed the invite,Sensible,edin_semantics,sem_emo_sem_emo,2.68984223052394,2,2,2,1,961064.662443296,89,A
32,4,6/4/96,20,f,156,The jumper wore Joe,Non-sensible,edin_semantics,sem_emo_sem_emo,4.32461590366438,1,2,2,1,961069.731501414,25,A
32,4,6/4/96,20,f,157,The ham ate Tim,Non-sensible,edin_semantics,sem_emo_sem_emo,1.38353408372495,2,2,2,1,961071.860267007,67,A
32,4,6/4/96,20,f,158,Jane licked the plate,Sensible,edin_semantics,sem_emo_sem_emo,5.7827113684034,2,1,1,1,961078.38772303,96,A
32,4,6/4/96,20,f,159,Andy pulled the rope,Sensible,edin_semantics,sem_emo_sem_emo,4.91222616785672,2,1,1,1,961084.044883398,148,A
32,4,6/4/96,20,f,160,The eggs whisked Dan,Non-sensible,edin_semantics,sem_emo_sem_emo,2.40732938889414,1,1,1,1,961087.196869564,62,A
32,4,6/4/96,20,f,161,Max kicked the door,Sensible,edin_semantics,sem_emo_sem_emo,3.76002319459803,2,1,1,1,961091.701385967,114,A
32,4,6/4/96,20,f,162,The tree hugged Amy,Non-sensible,edin_semantics,sem_emo_sem_emo,11.5574736495037,2,2,2,1,961104.003587272,11,A
32,4,6/4/96,20,f,163,The house built Kate,Non-sensible,edin_semantics,sem_emo_sem_emo,4.994404047844,1,1,1,1,961109.743031359,46,A
32,4,6/4/96,20,f,164,Joe entered the office,Sensible,edin_semantics,sem_emo_sem_emo,2.99537102377508,1,2,2,1,961113.483155055,133,A
32,4,6/4/96,20,f,165,The wine stored Leo,Non-sensible,edin_semantics,sem_emo_sem_emo,1.91357704764232,2,1,1,1,961116.141096381,52,A
32,4,6/4/96,20,f,166,The milk sniffed Phil,Non-sensible,edin_semantics,sem_emo_sem_emo,2.6778151668841,1,1,2,0,961119.563621243,18,A
32,4,6/4/96,20,f,167,Tim sniffed the perfume,Sensible,edin_semantics,sem_emo_sem_emo,7.55850027967244,2,2,2,1,961127.867051233,93,A
32,4,6/4/96,20,f,168,Luke watered the plants,Sensible,edin_semantics,sem_emo_sem_emo,0.983983799698763,2,2,2,1,961129.595890336,129,A
32,4,6/4/96,20,f,169,The book read Sean,Non-sensible,edin_semantics,sem_emo_sem_emo,1.11396973917726,2,1,1,1,961131.454177208,4,A
32,4,6/4/96,20,f,170,Emma pulled the rope,Sensible,edin_semantics,sem_emo_sem_emo,1.41933336073998,2,1,1,1,961133.618219302,120,A
32,4,6/4/96,20,f,171,Tom whisked the cream,Sensible,edin_semantics,sem_emo_sem_emo,1.11368237261195,2,2,2,1,961135.476528624,137,A
32,4,6/4/96,20,f,172,Jay painted the portrait,Sensible,edin_semantics,sem_emo_sem_emo,1.32526119577233,1,1,1,1,961137.546536398,110,A
32,4,6/4/96,20,f,173,The story wrote Ewan,Non-sensible,edin_semantics,sem_emo_sem_emo,1.71326068777125,2,1,1,1,961140.004570926,74,A
32,4,6/4/96,20,f,174,Jack cleaned the bath,Sensible,edin_semantics,sem_emo_sem_emo,1.44293527060654,2,1,1,1,961142.192138598,80,A
32,4,6/4/96,20,f,175,Joe iced the donut,Sensible,edin_semantics,sem_emo_sem_emo,1.79467621224467,1,2,2,1,961144.732529006,119,A
32,4,6/4/96,20,f,176,The table wiped Beth,Non-sensible,edin_semantics,sem_emo_sem_emo,2.6777641720837,2,1,1,1,961148.155053868,40,A
32,4,6/4/96,20,f,177,Jack posted the gift,Sensible,edin_semantics,sem_emo_sem_emo,2.73682186601218,1,2,2,1,961151.636364132,111,A
32,4,6/4/96,20,f,178,Jay squeezed the lemon,Sensible,edin_semantics,sem_emo_sem_emo,2.6895628819475,2,1,1,1,961155.070606882,76,A
32,4,6/4/96,20,f,179,The hill climbed Luke,Non-sensible,edin_semantics,sem_emo_sem_emo,1.47788110713009,1,1,1,1,961157.293491787,68,A
32,4,6/4/96,20,f,180,The room searched Jen,Non-sensible,edin_semantics,sem_emo_sem_emo,3.78347821405623,1,1,1,1,961161.821559747,10,A
32,4,6/4/96,20,f,181,Kate hugged the pillow,Sensible,edin_semantics,sem_emo_sem_emo,1.85495842166711,2,1,1,1,961164.420744536,86,A
32,4,6/4/96,20,f,182,Eve ironed the trousers,Sensible,edin_semantics,sem_emo_sem_emo,1.21938486851286,2,1,1,1,961166.384882718,130,A
32,4,6/4/96,20,f,183,Sara jumped the hedge,Sensible,edin_semantics,sem_emo_sem_emo,1.70166723965667,1,1,1,1,961168.831215394,92,A
32,4,6/4/96,20,f,184,Adam watched the opera,Sensible,edin_semantics,sem_emo_sem_emo,1.56058400857728,2,1,1,1,961171.136382413,108,A
32,4,6/4/96,20,f,185,The cheese grated Andy,Non-sensible,edin_semantics,sem_emo_sem_emo,4.66551035805605,1,2,2,1,961176.546543133,65,A
32,4,6/4/96,20,f,186,The bill paid Mike,Non-sensible,edin_semantics,sem_emo_sem_emo,1.80740661872551,1,2,2,1,961179.098726158,59,A
32,4,6/4/96,20,f,187,Ian pushed the button,Sensible,edin_semantics,sem_emo_sem_emo,1.77222761744633,1,2,2,1,961181.615579762,101,A
32,4,6/4/96,20,f,188,The box lifted Kate,Non-sensible,edin_semantics,sem_emo_sem_emo,4.06573608191684,1,2,2,1,961186.425915532,69,A
32,4,6/4/96,20,f,189,Rob measured the curtains,Sensible,edin_semantics,sem_emo_sem_emo,1.41861558554228,1,1,1,1,961188.589979115,126,A
32,4,6/4/96,20,f,190,Ryan knitted the socks,Sensible,edin_semantics,sem_emo_sem_emo,1.73681448935531,2,2,2,1,961191.071611703,141,A
32,4,6/4/96,20,f,191,Erin punched the monitor,Sensible,edin_semantics,sem_emo_sem_emo,1.11309865920339,1,2,2,1,961192.929876766,125,A
32,4,6/4/96,20,f,192,Hugh kissed the rose,Sensible,edin_semantics,sem_emo_sem_emo,1.23044752224814,1,1,1,1,961194.905722573,98,A
32,4,6/4/96,20,f,193,The bushes trimmed Jon,Non-sensible,edin_semantics,sem_emo_sem_emo,2.12491436733399,2,1,1,1,961197.775464982,32,A
32,4,6/4/96,20,f,194,The garden watered Jeff,Non-sensible,edin_semantics,sem_emo_sem_emo,2.80754324619193,1,1,1,1,961201.327432482,54,A
32,4,6/4/96,20,f,195,The toffee chewed Ben,Non-sensible,edin_semantics,sem_emo_sem_emo,1.13710628205445,1,2,2,1,961203.209178863,31,A
32,4,6/4/96,20,f,196,Max searched the internet,Sensible,edin_semantics,sem_emo_sem_emo,1.05516156670637,1,2,2,1,961205.008621641,85,A
32,4,6/4/96,20,f,197,Josh taught the rules,Sensible,edin_semantics,sem_emo_sem_emo,1.79630900640041,1,1,1,1,961207.549221159,90,A
32,4,6/4/96,20,f,198,Phil solved the problem,Sensible,edin_semantics,sem_emo_sem_emo,1.24234854232054,1,2,2,1,961209.536649831,109,A
32,4,6/4/96,20,f,199,The bike kicked Matt,Non-sensible,edin_semantics,sem_emo_sem_emo,3.66543915786315,2,2,2,1,961213.947052375,39,A
32,4,6/4/96,20,f,200,The picture painted Ryan,Non-sensible,edin_semantics,sem_emo_sem_emo,1.38360239751637,1,2,2,1,961216.075870246,35,A
32,4,6/4/96,20,f,201,The fur stroked Rob,Non-sensible,edin_semantics,sem_emo_sem_emo,3.24242487410083,2,2,2,1,961220.062928484,41,A
32,4,6/4/96,20,f,202,Josh scrubbed the pot,Sensible,edin_semantics,sem_emo_sem_emo,1.21991277649067,1,2,2,1,961222.027028501,131,A
32,4,6/4/96,20,f,203,Tom visited the hospital,Sensible,edin_semantics,sem_emo_sem_emo,3.14793320512399,2,2,2,1,961225.919962296,91,A
32,4,6/4/96,20,f,204,Liz weighed the sugar,Sensible,edin_semantics,sem_emo_sem_emo,3.24178567586932,2,2,2,1,961229.906991348,139,A
32,4,6/4/96,20,f,205,The teeth brushed Carl,Non-sensible,edin_semantics,sem_emo_sem_emo,1.20718140795361,1,1,1,1,961231.859343329,72,A
32,4,6/4/96,20,f,206,Ella mashed the turnip,Sensible,edin_semantics,sem_emo_sem_emo,6.10006196342874,1,2,2,1,961238.704362585,103,A
32,4,6/4/96,20,f,207,The shirt ironed Josh,Non-sensible,edin_semantics,sem_emo_sem_emo,2.3241027490003,2,2,2,1,961241.77403296,55,A
32,4,6/4/96,20,f,208,The trolley pushed Matt,Non-sensible,edin_semantics,sem_emo_sem_emo,2.10130315646529,1,1,1,1,961244.62027609,26,A
32,4,6/4/96,20,f,209,Fred lent the car,Sensible,edin_semantics,sem_emo_sem_emo,2.8778714213986,1,1,1,1,961248.242663491,94,A
32,4,6/4/96,20,f,210,Phil cancelled the party,Sensible,edin_semantics,sem_emo_sem_emo,1.21913246065378,2,1,1,1,961250.206785637,82,A
32,4,6/4/96,20,f,211,Tom grated the carrots,Sensible,edin_semantics,sem_emo_sem_emo,1.88957487698644,2,1,1,1,961252.841324542,140,A
32,4,6/4/96,20,f,212,Ryan stroked the blanket,Sensible,edin_semantics,sem_emo_sem_emo,3.47745615092572,2,1,1,1,961257.063650429,116,A
32,4,6/4/96,20,f,213,Josh crushed the ice,Sensible,edin_semantics,sem_emo_sem_emo,2.40736563049722,2,2,2,1,961260.215620879,81,A
32,4,6/4/96,20,f,214,The number dialed Tom,Non-sensible,edin_semantics,sem_emo_sem_emo,2.33649607689586,1,2,2,1,961263.297019084,63,A
32,4,6/4/96,20,f,215,Ian dented the bowl,Sensible,edin_semantics,sem_emo_sem_emo,1.7484050510684,1,1,1,1,961265.79036475,146,A
32,4,6/4/96,20,f,216,Alex dusted the house,Sensible,edin_semantics,sem_emo_sem_emo,1.4192685749149,1,1,1,1,961267.954402675,122,A
32,4,6/4/96,20,f,217,The museum visited Mary,Non-sensible,edin_semantics,sem_emo_sem_emo,1.80781136942096,1,1,1,1,961270.506616489,16,A
32,4,6/4/96,20,f,218,The fruits mixed Jack,Non-sensible,edin_semantics,sem_emo_sem_emo,1.43142007873394,1,1,1,1,961272.682434201,8,A
32,4,6/4/96,20,f,219,Eve typed the message,Sensible,edin_semantics,sem_emo_sem_emo,1.65440568991471,2,1,1,1,961275.081683648,124,A
32,4,6/4/96,20,f,220,Kate wore the dress,Sensible,edin_semantics,sem_emo_sem_emo,3.25416745780967,2,1,1,1,961279.080509486,100,A
32,4,6/4/96,20,f,221,Ian labeled the box,Sensible,edin_semantics,sem_emo_sem_emo,1.59628225816414,2,1,1,1,961281.421240372,136,A
32,4,6/4/96,20,f,222,The card posted Erin,Non-sensible,edin_semantics,sem_emo_sem_emo,1.65441595297307,1,1,1,1,961283.820239656,36,A
32,4,6/4/96,20,f,223,The plans cancelled Ian,Non-sensible,edin_semantics,sem_emo_sem_emo,1.38484262826387,1,2,2,1,961285.949043095,7,A
32,4,6/4/96,20,f,224,The coins polished Jon,Non-sensible,edin_semantics,sem_emo_sem_emo,8.74686398322228,2,2,2,1,961295.440286109,29,A
32,4,6/4/96,20,f,225,The shelf dusted Jake,Non-sensible,edin_semantics,sem_emo_sem_emo,1.48970611626282,2,2,2,1,961297.674907183,47,A
32,4,6/4/96,20,f,226,Leo carried the wallet,Sensible,edin_semantics,sem_emo_sem_emo,2.01930744631682,1,1,1,1,961300.438861784,150,A
32,4,6/4/96,20,f,227,The juice drank Matt,Non-sensible,edin_semantics,sem_emo_sem_emo,1.85460049624089,2,1,1,1,961303.038020595,60,A
32,4,6/4/96,20,f,228,The scarf knitted Tom,Non-sensible,edin_semantics,sem_emo_sem_emo,1.03140506893396,1,1,1,1,961304.813945813,66,A
32,4,6/4/96,20,f,229,The bowl scrubbed Liz,Non-sensible,edin_semantics,sem_emo_sem_emo,1.13727594388183,1,1,1,1,961306.695740623,56,A
32,4,6/4/96,20,f,230,Dan brushed the hair,Sensible,edin_semantics,sem_emo_sem_emo,1.23144432518166,2,2,2,1,961308.671642236,147,A
32,4,6/4/96,20,f,231,The folder carried Dan,Non-sensible,edin_semantics,sem_emo_sem_emo,3.85408156842459,2,1,1,1,961313.270308419,30,A
32,4,6/4/96,20,f,232,The puzzle solved Joe,Non-sensible,edin_semantics,sem_emo_sem_emo,1.19600521877874,2,1,1,1,961315.210839239,34,A
32,4,6/4/96,20,f,233,The floor cleaned Tim,Non-sensible,edin_semantics,sem_emo_sem_emo,1.4312998080859,2,2,2,1,961317.386662724,5,A
32,4,6/4/96,20,f,234,Luke fixed the radio,Sensible,edin_semantics,sem_emo_sem_emo,1.43145086790901,2,1,1,1,961319.562479153,112,A
32,4,6/4/96,20,f,235,Ben climbed the stairs,Sensible,edin_semantics,sem_emo_sem_emo,2.13708607654553,2,2,2,1,961322.443987238,143,A
32,4,6/4/96,20,f,236,Owen swallowed the gum,Sensible,edin_semantics,sem_emo_sem_emo,1.41963387699798,2,2,2,1,961324.608009447,97,A
32,4,6/4/96,20,f,237,The cake iced Mary,Non-sensible,edin_semantics,sem_emo_sem_emo,1.3133739666082,1,1,1,1,961326.66623551,44,A
32,4,6/4/96,20,f,238,Amy lifted the crate,Sensible,edin_semantics,sem_emo_sem_emo,0.93729986960534,1,1,1,1,961328.348063226,144,A
32,4,6/4/96,20,f,239,The dish served Kate,Non-sensible,edin_semantics,sem_emo_sem_emo,1.57264635176398,2,1,1,1,961330.665030558,70,A
32,4,6/4/96,20,f,240,John carried the kettle,Sensible,edin_semantics,sem_emo_sem_emo,1.97221491695382,2,2,2,1,961333.38190161,105,A
32,4,6/4/96,20,f,241,Rose built the shed,Sensible,edin_semantics,sem_emo_sem_emo,1.1607928625308,2,2,2,1,961335.287157854,121,A
32,4,6/4/96,20,f,242,The money offered Matt,Non-sensible,edin_semantics,sem_emo_sem_emo,1.59587430022657,1,2,2,1,961337.627637295,9,A
32,4,6/4/96,20,f,243,Erin tidied the garage,Sensible,edin_semantics,sem_emo_sem_emo,1.6894778907299,2,2,2,1,961340.062272608,77,A
32,4,6/4/96,20,f,244,The sheets counted Bill,Non-sensible,edin_semantics,sem_emo_sem_emo,0.948896204237826,1,1,1,1,961341.755850285,48,A
32,4,6/4/96,20,f,245,Anna polished the trophy,Sensible,edin_semantics,sem_emo_sem_emo,3.32483399449848,2,1,1,1,961345.825232652,104,A
32,4,6/4/96,20,f,246,Liam mixed the nuts,Sensible,edin_semantics,sem_emo_sem_emo,2.34872904396616,1,2,2,1,961348.918384345,83,A
32,4,6/4/96,20,f,247,Luke read the poster,Sensible,edin_semantics,sem_emo_sem_emo,1.72514086100273,2,2,2,1,961351.388247089,79,A
32,4,6/4/96,20,f,248,Lucy cut the ribbon,Sensible,edin_semantics,sem_emo_sem_emo,1.21946633188054,1,2,2,1,961353.352364104,95,A
32,4,6/4/96,20,f,249,The pen described John,Non-sensible,edin_semantics,sem_emo_sem_emo,1.33693065482657,1,1,1,1,961355.434062826,42,A
32,4,6/4/96,20,f,250,The paper cut Jon,Non-sensible,edin_semantics,sem_emo_sem_emo,1.10236153798178,1,1,1,1,961357.280628922,20,A
32,4,6/4/96,20,f,251,Alex wrote the report,Sensible,edin_semantics,sem_emo_sem_emo,5.34800709947012,2,2,2,1,961363.372874257,149,A
32,4,6/4/96,20,f,252,Tim took the ticket,Sensible,edin_semantics,sem_emo_sem_emo,1.47773165081162,2,1,1,1,961365.595742804,128,A
32,4,6/4/96,20,f,253,Sam sucked the candy,Sensible,edin_semantics,sem_emo_sem_emo,1.36029330641031,1,2,2,1,961367.701007515,87,A
32,4,6/4/96,20,f,254,The herbs chopped Phil,Non-sensible,edin_semantics,sem_emo_sem_emo,1.31365556025412,2,2,2,1,961369.759213372,27,A
32,4,6/4/96,20,f,255,Jay sold the bed,Sensible,edin_semantics,sem_emo_sem_emo,2.67837642983068,2,2,2,1,961373.181705842,113,A
32,4,6/4/96,20,f,256,Hugh dialed the hotline,Sensible,edin_semantics,sem_emo_sem_emo,2.37235115945805,2,1,1,1,961376.298414544,138,A
32,4,6/4/96,20,f,257,The dishes washed Mark,Non-sensible,edin_semantics,sem_emo_sem_emo,1.07831350411288,1,2,2,1,961378.121383542,57,A
32,4,6/4/96,20,f,258,The pill swallowed Luke,Non-sensible,edin_semantics,sem_emo_sem_emo,2.0549235913204,2,1,1,1,961380.92056846,22,A
32,4,6/4/96,20,f,259,Jack drank the beer,Sensible,edin_semantics,sem_emo_sem_emo,3.54804635583423,2,2,2,1,961385.213362677,135,A
32,4,6/4/96,20,f,260,The wall punched Jane,Non-sensible,edin_semantics,sem_emo_sem_emo,1.56064654921647,2,1,1,1,961387.518567862,50,A
32,4,6/4/96,20,f,261,The gun carried Ryan,Non-sensible,edin_semantics,sem_emo_sem_emo,1.26637284283061,1,2,2,1,961389.529735712,75,A
32,4,6/4/96,20,f,262,Mike ate the steak,Sensible,edin_semantics,sem_emo_sem_emo,1.5246840249747,1,1,1,1,961391.799649644,142,A
32,4,6/4/96,20,f,263,Zoe paid the debt,Sensible,edin_semantics,sem_emo_sem_emo,1.97234352631494,2,1,1,1,961394.516528072,134,A
32,4,6/4/96,20,f,264,The flour weighed Jen,Non-sensible,edin_semantics,sem_emo_sem_emo,2.71278120880015,2,1,1,1,961397.974269781,64,A
32,4,6/4/96,20,f,265,The letter typed Phil,Non-sensible,edin_semantics,sem_emo_sem_emo,1.41894368384965,2,2,2,1,961400.138320855,49,A
32,4,6/4/96,20,f,266,Leo passed the salt,Sensible,edin_semantics,sem_emo_sem_emo,1.16068606218323,1,1,1,1,961402.043631942,118,A
32,4,6/4/96,20,f,267,Fred chopped the carrots,Sensible,edin_semantics,sem_emo_sem_emo,1.34837079793215,2,1,1,1,961404.137103396,102,A
32,4,6/4/96,20,f,268,The jar labeled Liz,Non-sensible,edin_semantics,sem_emo_sem_emo,2.85463353048544,1,2,2,1,961407.736034494,61,A
32,4,6/4/96,20,f,269,The sofa sold Carl,Non-sensible,edin_semantics,sem_emo_sem_emo,2.26593826489989,2,1,1,1,961410.746890924,38,A
32,4,6/4/96,20,f,270,The ball squeezed Josh,Non-sensible,edin_semantics,sem_emo_sem_emo,1.91278261994012,2,2,2,1,961413.404906336,1,A
32,4,6/4/96,20,f,271,The room entered Ryan,Non-sensible,edin_semantics,sem_emo_sem_emo,5.7002092389157,1,1,1,1,961419.850098846,58,A
32,4,6/4/96,20,f,272,Bill trimmed the hair,Sensible,edin_semantics,sem_emo_sem_emo,3.51306299481075,1,2,2,1,961424.107612073,107,A
32,4,6/4/96,20,f,273,Lucy wiped the desk,Sensible,edin_semantics,sem_emo_sem_emo,0.995885782060213,1,2,2,1,961425.848265601,115,A
32,4,6/4/96,20,f,274,The parcel mailed Rob,Non-sensible,edin_semantics,sem_emo_sem_emo,1.57210272841621,2,1,1,1,961428.165191561,14,A
32,4,6/4/96,20,f,275,The laptop fixed Jen,Non-sensible,edin_semantics,sem_emo_sem_emo,2.20737031300087,2,2,2,1,961431.11724078,37,A
32,4,6/4/96,20,f,276,The bucket lent Max,Non-sensible,edin_semantics,sem_emo_sem_emo,1.53672616265249,2,2,2,1,961433.398914614,19,A
32,4,6/4/96,20,f,277,The kettle got Lily,Non-sensible,edin_semantics,sem_emo_sem_emo,4.26528687914833,1,2,2,1,961438.409193744,13,A
32,4,6/4/96,20,f,278,Fred stored the rice,Sensible,edin_semantics,sem_emo_sem_emo,2.99504388752393,1,2,2,1,961442.149249768,127,A
32,4,6/4/96,20,f,279,Liam sliced the onion,Sensible,edin_semantics,sem_emo_sem_emo,1.14840659045149,1,1,1,1,961444.042800311,78,A
32,4,6/4/96,20,f,280,The photo took Beth,Non-sensible,edin_semantics,sem_emo_sem_emo,5.20640333706979,1,2,2,1,961449.993937718,53,A
32,4,6/4/96,20,f,281,The spoon licked Will,Non-sensible,edin_semantics,sem_emo_sem_emo,0.948563936515711,2,2,2,1,961451.687564465,21,A
32,4,6/4/96,20,f,282,The handle pulled Tim,Non-sensible,edin_semantics,sem_emo_sem_emo,3.99480366695207,2,2,2,1,961456.427310672,73,A
32,4,6/4/96,20,f,283,The mirror kissed Max,Non-sensible,edin_semantics,sem_emo_sem_emo,3.12463373574428,1,2,2,1,961460.296779826,23,A
32,4,6/4/96,20,f,284,The garlic crushed Erin,Non-sensible,edin_semantics,sem_emo_sem_emo,7.06442336796317,2,1,1,1,961468.10618422,6,A
32,4,6/4/96,20,f,285,Tom offered the sweets,Sensible,edin_semantics,sem_emo_sem_emo,2.86570580583066,1,1,1,1,961471.716873297,84,A
32,4,6/4/96,20,f,286,The lesson taught Eve,Non-sensible,edin_semantics,sem_emo_sem_emo,1.230670423829,1,2,2,1,961473.692753101,15,A
32,4,6/4/96,20,f,287,Lucy counted the shoes,Sensible,edin_semantics,sem_emo_sem_emo,2.94828298431821,2,2,2,1,961477.385746101,123,A
32,4,6/4/96,20,f,288,The potatoes mashed Will,Non-sensible,edin_semantics,sem_emo_sem_emo,2.51278396695852,1,1,1,1,961480.643633289,28,A
32,4,6/4/96,20,f,289,Fred served the dessert,Sensible,edin_semantics,sem_emo_sem_emo,1.33800988341682,2,2,2,1,961482.725307636,145,A
32,4,6/4/96,20,f,290,Beth washed the pan,Sensible,edin_semantics,sem_emo_sem_emo,3.01962913025636,2,1,1,1,961486.488895973,132,A
32,4,6/4/96,20,f,291,Adam chewed the fat,Sensible,edin_semantics,sem_emo_sem_emo,1.0669208279578,1,1,1,1,961488.300095126,106,A
32,4,6/4/96,20,f,292,Ian filed the report,Sensible,edin_semantics,sem_emo_sem_emo,2.38367937074509,1,2,2,1,961491.428595803,99,A
32,4,6/4/96,20,f,293,Ben got the radio,Sensible,edin_semantics,sem_emo_sem_emo,2.74773281824309,2,1,1,1,961494.92168842,88,A
32,4,6/4/96,20,f,294,The lorry dented Lily,Non-sensible,edin_semantics,sem_emo_sem_emo,1.28967102931347,2,2,2,1,961496.956328288,71,A
32,4,6/4/96,20,f,295,The lever pulled Hugh,Non-sensible,edin_semantics,sem_emo_sem_emo,6.89968755282462,2,2,2,1,961504.601112648,45,A
32,4,6/4/96,20,f,296,Erin described the church,Sensible,edin_semantics,sem_emo_sem_emo,1.31428738206159,2,2,2,1,961506.659325882,117,A
32,4,6/4/96,20,f,297,The lolly sucked Leah,Non-sensible,edin_semantics,sem_emo_sem_emo,0.985271818120964,2,1,1,1,961508.388210206,12,A
32,4,6/4/96,20,f,298,The fence jumped Jon,Non-sensible,edin_semantics,sem_emo_sem_emo,3.85501005779952,1,2,2,1,961512.986836298,17,A
32,4,6/4/96,20,f,299,The tomato sliced Liz,Non-sensible,edin_semantics,sem_emo_sem_emo,5.30050564988051,2,2,2,1,961519.032105204,3,A
32,4,6/4/96,20,f,300,The room tidied Sam,Non-sensible,edin_semantics,sem_emo_sem_emo,2.33663270447869,1,1,1,1,961522.113556008,2,A
