subject_column,AssignedList_column,subject_dob_column,subject_age_column,subject_gender_column,trialnum_column,Stim_column,Type_column,Experiment_column,OrderGroup_column,ReactionTime_column,StimSide_column,StimPosition_column,Response_column,Valid_column,TrialEndSecs_column,PairID_column,List_column
33,1,7/27/89,26,f,1,Lucy counted the shoes,Sensible,edin_semantics,emo_sem_emo_sem,5.35409151087515,2,1,1,1,965068.992223782,123,A
33,1,7/27/89,26,f,2,The jar labeled Liz,Non-sensible,edin_semantics,emo_sem_emo_sem,1.02014485083055,1,1,1,1,965070.756397436,61,A
33,1,7/27/89,26,f,3,Ben got the radio,Sensible,edin_semantics,emo_sem_emo_sem,0.867656435235403,1,2,2,1,965072.36776516,88,A
33,1,7/27/89,26,f,4,Jack drank the beer,Sensible,edin_semantics,emo_sem_emo_sem,1.23241194267757,1,1,1,1,965074.343550671,135,A
33,1,7/27/89,26,f,5,Luke read the poster,Sensible,edin_semantics,emo_sem_emo_sem,2.56151378073264,1,1,1,1,965077.64844636,79,A
33,1,7/27/89,26,f,6,Bill trimmed the hair,Sensible,edin_semantics,emo_sem_emo_sem,0.750235730432905,1,1,1,1,965079.142112748,107,A
33,1,7/27/89,26,f,7,Jack posted the gift,Sensible,edin_semantics,emo_sem_emo_sem,0.915226840064861,2,1,1,1,965080.800446637,111,A
33,1,7/27/89,26,f,8,The room searched Jen,Non-sensible,edin_semantics,emo_sem_emo_sem,1.10373518906999,2,2,2,1,965082.646941213,10,A
33,1,7/27/89,26,f,9,The paper cut Jon,Non-sensible,edin_semantics,emo_sem_emo_sem,1.26798350713216,2,2,2,1,965084.658112591,20,A
33,1,7/27/89,26,f,10,Andy pulled the rope,Sensible,edin_semantics,emo_sem_emo_sem,1.85600525722839,2,2,2,1,965087.257384296,148,A
33,1,7/27/89,26,f,11,The bucket lent Max,Non-sensible,edin_semantics,emo_sem_emo_sem,1.00914153072517,1,1,1,1,965089.009761165,19,A
33,1,7/27/89,26,f,12,Eve typed the message,Sensible,edin_semantics,emo_sem_emo_sem,1.11495146842208,2,2,2,1,965090.868016606,124,A
33,1,7/27/89,26,f,13,Eve ironed the trousers,Sensible,edin_semantics,emo_sem_emo_sem,1.07957875123248,2,2,2,1,965092.690993621,130,A
33,1,7/27/89,26,f,14,Ian labeled the box,Sensible,edin_semantics,emo_sem_emo_sem,0.868087805924006,1,2,1,0,965094.302327991,136,A
33,1,7/27/89,26,f,15,Erin tidied the garage,Sensible,edin_semantics,emo_sem_emo_sem,0.985757070011459,2,1,1,1,965096.0311966,77,A
33,1,7/27/89,26,f,16,Lucy cut the ribbon,Sensible,edin_semantics,emo_sem_emo_sem,1.0330628794618,1,1,1,1,965097.807090387,95,A
33,1,7/27/89,26,f,17,Tom visited the hospital,Sensible,edin_semantics,emo_sem_emo_sem,1.03299135842826,1,1,1,1,965099.583044791,91,A
33,1,7/27/89,26,f,18,Sam sucked the candy,Sensible,edin_semantics,emo_sem_emo_sem,0.762043741298839,1,1,1,1,965101.088478137,87,A
33,1,7/27/89,26,f,19,The hill climbed Luke,Non-sensible,edin_semantics,emo_sem_emo_sem,1.29099015763495,1,2,2,1,965103.12316483,68,A
33,1,7/27/89,26,f,20,Josh taught the rules,Sensible,edin_semantics,emo_sem_emo_sem,0.79778304323554,1,2,2,1,965104.663851265,90,A
33,1,7/27/89,26,f,21,Anna polished the trophy,Sensible,edin_semantics,emo_sem_emo_sem,0.832816116162576,2,2,2,1,965106.239890531,104,A
33,1,7/27/89,26,f,22,Jay painted the portrait,Sensible,edin_semantics,emo_sem_emo_sem,0.973912176094018,1,2,2,1,965107.956993465,110,A
33,1,7/27/89,26,f,23,Luke fixed the radio,Sensible,edin_semantics,emo_sem_emo_sem,1.89168971579056,2,2,2,1,965110.591657772,112,A
33,1,7/27/89,26,f,24,Leo passed the salt,Sensible,edin_semantics,emo_sem_emo_sem,0.937140471069142,2,2,2,1,965112.273353671,118,A
33,1,7/27/89,26,f,25,The lolly sucked Leah,Non-sensible,edin_semantics,emo_sem_emo_sem,1.16176529065706,2,2,2,1,965114.178649685,12,A
33,1,7/27/89,26,f,26,Tim took the ticket,Sensible,edin_semantics,emo_sem_emo_sem,0.821206632070243,2,2,2,1,965115.742913333,128,A
33,1,7/27/89,26,f,27,Ian dented the bowl,Sensible,edin_semantics,emo_sem_emo_sem,1.47976502648089,1,2,2,1,965117.965774825,146,A
33,1,7/27/89,26,f,28,Ian filed the report,Sensible,edin_semantics,emo_sem_emo_sem,2.98512396542355,1,1,1,1,965121.694094359,99,A
33,1,7/27/89,26,f,29,The story wrote Ewan,Non-sensible,edin_semantics,emo_sem_emo_sem,1.05591462133452,1,2,2,1,965123.493477162,74,A
33,1,7/27/89,26,f,30,The shelf dusted Jake,Non-sensible,edin_semantics,emo_sem_emo_sem,7.07835199078545,2,1,1,1,965131.314670965,47,A
33,1,7/27/89,26,f,31,The cake iced Mary,Non-sensible,edin_semantics,emo_sem_emo_sem,1.60835550585762,2,2,2,1,965133.666912233,44,A
33,1,7/27/89,26,f,32,The milk sniffed Phil,Non-sensible,edin_semantics,emo_sem_emo_sem,1.21997563797049,1,2,2,1,965135.631034058,18,A
33,1,7/27/89,26,f,33,The bowl scrubbed Liz,Non-sensible,edin_semantics,emo_sem_emo_sem,1.25586824503262,2,2,2,1,965137.630444892,56,A
33,1,7/27/89,26,f,34,The dish served Kate,Non-sensible,edin_semantics,emo_sem_emo_sem,0.832329902099445,2,2,2,1,965139.206420656,70,A
33,1,7/27/89,26,f,35,The book read Sean,Non-sensible,edin_semantics,emo_sem_emo_sem,1.11471541726496,2,2,2,1,965141.064684435,4,A
33,1,7/27/89,26,f,36,The sheets counted Bill,Non-sensible,edin_semantics,emo_sem_emo_sem,1.05605862534139,2,2,2,1,965142.864176284,48,A
33,1,7/27/89,26,f,37,The box lifted Kate,Non-sensible,edin_semantics,emo_sem_emo_sem,1.38513416436035,2,1,1,1,965144.992951499,69,A
33,1,7/27/89,26,f,38,The handle pulled Tim,Non-sensible,edin_semantics,emo_sem_emo_sem,0.938912779092789,1,1,1,1,965146.674776649,73,A
33,1,7/27/89,26,f,39,Ella mashed the turnip,Sensible,edin_semantics,emo_sem_emo_sem,0.821004898054525,1,1,1,1,965148.239035487,103,A
33,1,7/27/89,26,f,40,The flour weighed Jen,Non-sensible,edin_semantics,emo_sem_emo_sem,0.902728956774808,1,2,2,1,965149.885572591,64,A
33,1,7/27/89,26,f,41,The herbs chopped Phil,Non-sensible,edin_semantics,emo_sem_emo_sem,1.25621334149037,1,1,1,1,965151.88505655,27,A
33,1,7/27/89,26,f,42,The floor cleaned Tim,Non-sensible,edin_semantics,emo_sem_emo_sem,0.974066763999872,1,1,1,1,965153.60214473,5,A
33,1,7/27/89,26,f,43,The fruits mixed Jack,Non-sensible,edin_semantics,emo_sem_emo_sem,1.12666743213777,1,2,2,1,965155.472175789,8,A
33,1,7/27/89,26,f,44,The fur stroked Rob,Non-sensible,edin_semantics,emo_sem_emo_sem,0.856395254842937,1,1,1,1,965157.071674244,41,A
33,1,7/27/89,26,f,45,Fred served the dessert,Sensible,edin_semantics,emo_sem_emo_sem,1.05638736509718,2,1,1,1,965158.871091365,145,A
33,1,7/27/89,26,f,46,The photo took Beth,Non-sensible,edin_semantics,emo_sem_emo_sem,0.879746681195684,2,1,1,1,965160.494143301,53,A
33,1,7/27/89,26,f,47,Joe entered the office,Sensible,edin_semantics,emo_sem_emo_sem,0.856227517477237,2,1,1,1,965162.093688903,133,A
33,1,7/27/89,26,f,48,Tom offered the sweets,Sensible,edin_semantics,emo_sem_emo_sem,0.785989785566926,1,2,2,1,965163.622660335,84,A
33,1,7/27/89,26,f,49,The kettle got Lily,Non-sensible,edin_semantics,emo_sem_emo_sem,0.809284444199875,2,1,1,1,965165.175121104,13,A
33,1,7/27/89,26,f,50,The towels passed Phil,Non-sensible,edin_semantics,emo_sem_emo_sem,0.85608832410071,2,1,1,1,965166.774619881,43,A
33,1,7/27/89,26,f,51,Ian mailed the invite,Sensible,edin_semantics,emo_sem_emo_sem,0.69181498978287,1,1,1,1,965168.209499264,89,A
33,1,7/27/89,26,f,52,The toffee chewed Ben,Non-sensible,edin_semantics,emo_sem_emo_sem,0.809404394240119,2,1,1,1,965169.761960995,31,A
33,1,7/27/89,26,f,53,The cheese grated Andy,Non-sensible,edin_semantics,emo_sem_emo_sem,0.750365301966667,2,1,1,1,965171.255630269,65,A
33,1,7/27/89,26,f,54,Alex dusted the house,Sensible,edin_semantics,emo_sem_emo_sem,0.903037491138093,2,2,2,1,965172.902184692,122,A
33,1,7/27/89,26,f,55,The table wiped Beth,Non-sensible,edin_semantics,emo_sem_emo_sem,1.27996246272232,1,2,2,1,965174.92511469,40,A
33,1,7/27/89,26,f,56,Tom whisked the cream,Sensible,edin_semantics,emo_sem_emo_sem,0.785665856790729,2,1,1,1,965176.454067842,137,A
33,1,7/27/89,26,f,57,The lesson taught Eve,Non-sensible,edin_semantics,emo_sem_emo_sem,0.962148104212247,1,1,1,1,965178.15944519,15,A
33,1,7/27/89,26,f,58,The juice drank Matt,Non-sensible,edin_semantics,emo_sem_emo_sem,0.879386189975776,2,2,2,1,965179.782512842,60,A
33,1,7/27/89,26,f,59,The folder carried Dan,Non-sensible,edin_semantics,emo_sem_emo_sem,0.868214811664075,1,2,2,1,965181.393761899,30,A
33,1,7/27/89,26,f,60,The lever pulled Hugh,Non-sensible,edin_semantics,emo_sem_emo_sem,1.0919480251614,2,1,1,1,965183.228601448,45,A
33,1,7/27/89,26,f,61,Ryan knitted the socks,Sensible,edin_semantics,emo_sem_emo_sem,0.915101117221639,1,1,1,1,965184.886840404,141,A
33,1,7/27/89,26,f,62,The teeth brushed Carl,Non-sensible,edin_semantics,emo_sem_emo_sem,0.833013680763543,1,2,2,1,965186.462815526,72,A
33,1,7/27/89,26,f,63,Owen swallowed the gum,Sensible,edin_semantics,emo_sem_emo_sem,6.44297247438226,1,1,1,1,965193.648920066,97,A
33,1,7/27/89,26,f,64,The coins polished Jon,Non-sensible,edin_semantics,emo_sem_emo_sem,1.03222002275288,1,1,1,1,965195.424858113,29,A
33,1,7/27/89,26,f,65,Josh crushed the ice,Sensible,edin_semantics,emo_sem_emo_sem,0.667606595088728,1,1,1,1,965196.836201654,81,A
33,1,7/27/89,26,f,66,Jay squeezed the lemon,Sensible,edin_semantics,emo_sem_emo_sem,0.808890598011203,1,2,2,1,965198.388663707,76,A
33,1,7/27/89,26,f,67,The potatoes mashed Will,Non-sensible,edin_semantics,emo_sem_emo_sem,0.90294031240046,2,2,2,1,965200.035230317,28,A
33,1,7/27/89,26,f,68,Josh scrubbed the pot,Sensible,edin_semantics,emo_sem_emo_sem,0.903016002732329,1,1,1,1,965201.681778966,131,A
33,1,7/27/89,26,f,69,The spoon licked Will,Non-sensible,edin_semantics,emo_sem_emo_sem,0.856186144286767,1,1,1,1,965203.281350546,21,A
33,1,7/27/89,26,f,70,Joe iced the donut,Sensible,edin_semantics,emo_sem_emo_sem,1.11512048880104,2,1,1,1,965205.139605987,119,A
33,1,7/27/89,26,f,71,Sara jumped the hedge,Sensible,edin_semantics,emo_sem_emo_sem,0.938610979937948,2,2,2,1,965206.821462247,92,A
33,1,7/27/89,26,f,72,The mirror kissed Max,Non-sensible,edin_semantics,emo_sem_emo_sem,0.832867431687191,1,1,1,1,965208.3973976,23,A
33,1,7/27/89,26,f,73,Max kicked the door,Sensible,edin_semantics,emo_sem_emo_sem,0.856033801450394,2,2,2,1,965209.996932297,114,A
33,1,7/27/89,26,f,74,The thread measured Amy,Non-sensible,edin_semantics,emo_sem_emo_sem,0.703952061128803,1,1,1,1,965211.443700192,51,A
33,1,7/27/89,26,f,75,Jack cleaned the bath,Sensible,edin_semantics,emo_sem_emo_sem,0.715143003500998,1,2,2,1,965212.901952169,80,A
33,1,7/27/89,26,f,76,Amy lifted the crate,Sensible,edin_semantics,emo_sem_emo_sem,0.855666575138457,2,2,2,1,965214.501529201,144,A
33,1,7/27/89,26,f,77,The parcel mailed Rob,Non-sensible,edin_semantics,emo_sem_emo_sem,0.644513991079293,1,2,2,1,965215.889285907,14,A
33,1,7/27/89,26,f,78,The bushes trimmed Jon,Non-sensible,edin_semantics,emo_sem_emo_sem,0.726536962552927,1,2,2,1,965217.359431206,32,A
33,1,7/27/89,26,f,79,Rob measured the curtains,Sensible,edin_semantics,emo_sem_emo_sem,0.856090569286607,2,2,2,1,965218.958973601,126,A
33,1,7/27/89,26,f,80,Leo carried the wallet,Sensible,edin_semantics,emo_sem_emo_sem,0.656423991546035,1,2,2,1,965220.358525488,150,A
33,1,7/27/89,26,f,81,The wall punched Jane,Non-sensible,edin_semantics,emo_sem_emo_sem,0.856115906266496,1,2,2,1,965221.958075259,50,A
33,1,7/27/89,26,f,82,The pill swallowed Luke,Non-sensible,edin_semantics,emo_sem_emo_sem,0.821065514464863,2,2,2,1,965223.522329607,22,A
33,1,7/27/89,26,f,83,The number dialed Tom,Non-sensible,edin_semantics,emo_sem_emo_sem,0.84425241057761,1,1,1,1,965225.110045709,63,A
33,1,7/27/89,26,f,84,Tim sniffed the perfume,Sensible,edin_semantics,emo_sem_emo_sem,1.44449397816788,2,1,1,1,965227.297629418,93,A
33,1,7/27/89,26,f,85,Liam sliced the onion,Sensible,edin_semantics,emo_sem_emo_sem,0.691665854188614,1,2,2,1,965228.732501424,78,A
33,1,7/27/89,26,f,86,Jane licked the plate,Sensible,edin_semantics,emo_sem_emo_sem,0.715607087709941,1,2,2,1,965230.190871747,96,A
33,1,7/27/89,26,f,87,The sofa sold Carl,Non-sensible,edin_semantics,emo_sem_emo_sem,2.25600038224366,2,2,2,1,965233.189966671,38,A
33,1,7/27/89,26,f,88,The garden watered Jeff,Non-sensible,edin_semantics,emo_sem_emo_sem,1.32674389216118,2,2,2,1,965235.259959692,54,A
33,1,7/27/89,26,f,89,Ryan stroked the blanket,Sensible,edin_semantics,emo_sem_emo_sem,2.73766279837582,2,2,2,1,965238.741287916,116,A
33,1,7/27/89,26,f,90,Mike ate the steak,Sensible,edin_semantics,emo_sem_emo_sem,1.44441636349075,1,2,2,1,965240.928851419,142,A
33,1,7/27/89,26,f,91,The dishes washed Mark,Non-sensible,edin_semantics,emo_sem_emo_sem,1.31487590633333,2,1,1,1,965242.987118854,57,A
33,1,7/27/89,26,f,92,The jumper wore Joe,Non-sensible,edin_semantics,emo_sem_emo_sem,1.02093799551949,1,1,1,1,965244.751218101,25,A
33,1,7/27/89,26,f,93,The money offered Matt,Non-sensible,edin_semantics,emo_sem_emo_sem,4.89008450380061,2,1,1,1,965250.384814084,9,A
33,1,7/27/89,26,f,94,The museum visited Mary,Non-sensible,edin_semantics,emo_sem_emo_sem,2.4903722552117,1,2,2,1,965253.619141056,16,A
33,1,7/27/89,26,f,95,Lucy wiped the desk,Sensible,edin_semantics,emo_sem_emo_sem,1.00865659932606,1,1,1,1,965255.371543261,115,A
33,1,7/27/89,26,f,96,The bike kicked Matt,Non-sensible,edin_semantics,emo_sem_emo_sem,2.11406274861656,1,1,1,1,965258.229514222,39,A
33,1,7/27/89,26,f,97,The eggs whisked Dan,Non-sensible,edin_semantics,emo_sem_emo_sem,1.85564797336701,2,2,2,1,965260.828756421,62,A
33,1,7/27/89,26,f,98,Adam chewed the fat,Sensible,edin_semantics,emo_sem_emo_sem,1.20844280638266,2,2,2,1,965262.781062859,106,A
33,1,7/27/89,26,f,99,John carried the kettle,Sensible,edin_semantics,emo_sem_emo_sem,0.856047913315706,1,1,1,1,965264.380654324,105,A
33,1,7/27/89,26,f,100,The card posted Erin,Non-sensible,edin_semantics,emo_sem_emo_sem,1.19717168353964,2,2,2,1,965266.321208877,36,A
33,1,7/27/89,26,f,101,Fred chopped the carrots,Sensible,edin_semantics,emo_sem_emo_sem,1.03205388900824,2,2,2,1,965268.097150452,102,A
33,1,7/27/89,26,f,102,The movie watched Ella,Non-sensible,edin_semantics,emo_sem_emo_sem,2.02055729890708,2,1,1,1,965270.861022948,33,A
33,1,7/27/89,26,f,103,The papers filed Lara,Non-sensible,edin_semantics,emo_sem_emo_sem,1.5617937707575,1,2,2,1,965273.166232303,24,A
33,1,7/27/89,26,f,104,Phil cancelled the party,Sensible,edin_semantics,emo_sem_emo_sem,0.773550594458357,1,2,2,1,965274.683395724,82,A
33,1,7/27/89,26,f,105,Emma pulled the rope,Sensible,edin_semantics,emo_sem_emo_sem,1.24403040693142,2,2,2,1,965276.67105307,120,A
33,1,7/27/89,26,f,106,Erin punched the monitor,Sensible,edin_semantics,emo_sem_emo_sem,0.985211522434838,2,1,1,1,965278.399938357,125,A
33,1,7/27/89,26,f,107,Zoe paid the debt,Sensible,edin_semantics,emo_sem_emo_sem,0.950532205635682,2,2,2,1,965280.09353656,134,A
33,1,7/27/89,26,f,108,The puzzle solved Joe,Non-sensible,edin_semantics,emo_sem_emo_sem,1.85414250567555,2,2,2,1,965282.692753421,34,A
33,1,7/27/89,26,f,109,The fence jumped Jon,Non-sensible,edin_semantics,emo_sem_emo_sem,1.39580521674361,2,1,1,1,965284.83330201,17,A
33,1,7/27/89,26,f,110,The shirt ironed Josh,Non-sensible,edin_semantics,emo_sem_emo_sem,1.25464052229654,1,1,1,1,965286.832721182,55,A
33,1,7/27/89,26,f,111,Tom grated the carrots,Sensible,edin_semantics,emo_sem_emo_sem,1.51345812401269,2,2,2,1,965289.09088387,140,A
33,1,7/27/89,26,f,112,Phil solved the problem,Sensible,edin_semantics,emo_sem_emo_sem,0.819696994964033,1,1,1,1,965290.655110957,109,A
33,1,7/27/89,26,f,113,The room tidied Sam,Non-sensible,edin_semantics,emo_sem_emo_sem,0.901509252144024,1,2,2,1,965292.301658644,2,A
33,1,7/27/89,26,f,114,Hugh kissed the rose,Sensible,edin_semantics,emo_sem_emo_sem,1.25458279228769,1,2,2,1,965294.301059215,98,A
33,1,7/27/89,26,f,115,The room entered Ryan,Non-sensible,edin_semantics,emo_sem_emo_sem,1.41935581120197,1,2,2,1,965296.465098744,58,A
33,1,7/27/89,26,f,116,Alex wrote the report,Sensible,edin_semantics,emo_sem_emo_sem,0.996129530481994,2,1,1,1,965298.205746178,149,A
33,1,7/27/89,26,f,117,The wine stored Leo,Non-sensible,edin_semantics,emo_sem_emo_sem,0.808325807098299,2,2,2,1,965299.758238699,52,A
33,1,7/27/89,26,f,118,Erin described the church,Sensible,edin_semantics,emo_sem_emo_sem,1.06592274201103,1,1,1,1,965301.569505524,117,A
33,1,7/27/89,26,f,119,Rose built the shed,Sensible,edin_semantics,emo_sem_emo_sem,1.43096144672018,1,1,1,1,965303.745283146,121,A
33,1,7/27/89,26,f,120,The pen described John,Non-sensible,edin_semantics,emo_sem_emo_sem,0.866081050247885,2,2,2,1,965305.356545673,42,A
33,1,7/27/89,26,f,121,The plans cancelled Ian,Non-sensible,edin_semantics,emo_sem_emo_sem,0.854595043929294,2,1,1,1,965306.956067862,7,A
33,1,7/27/89,26,f,122,The garlic crushed Erin,Non-sensible,edin_semantics,emo_sem_emo_sem,0.686463748221286,2,2,2,1,965308.379168099,6,A
33,1,7/27/89,26,f,123,The picture painted Ryan,Non-sensible,edin_semantics,emo_sem_emo_sem,0.796503684483469,1,1,1,1,965309.919935676,35,A
33,1,7/27/89,26,f,124,The laptop fixed Jen,Non-sensible,edin_semantics,emo_sem_emo_sem,0.890845255577005,1,1,1,1,965311.554686578,37,A
33,1,7/27/89,26,f,125,Kate wore the dress,Sensible,edin_semantics,emo_sem_emo_sem,0.855571000138298,2,2,2,1,965313.154206842,100,A
33,1,7/27/89,26,f,126,Dan brushed the hair,Sensible,edin_semantics,emo_sem_emo_sem,1.03175722132437,2,1,1,1,965314.930138154,147,A
33,1,7/27/89,26,f,127,The house built Kate,Non-sensible,edin_semantics,emo_sem_emo_sem,0.808144278591499,1,2,2,1,965316.482612394,46,A
33,1,7/27/89,26,f,128,The gun carried Ryan,Non-sensible,edin_semantics,emo_sem_emo_sem,0.737532585277222,1,1,1,1,965317.964532349,75,A
33,1,7/27/89,26,f,129,The lorry dented Lily,Non-sensible,edin_semantics,emo_sem_emo_sem,0.948970611672848,1,1,1,1,965319.658153002,71,A
33,1,7/27/89,26,f,130,Max searched the internet,Sensible,edin_semantics,emo_sem_emo_sem,1.32575350359548,2,1,1,1,965321.728143137,85,A
33,1,7/27/89,26,f,131,The trolley pushed Matt,Non-sensible,edin_semantics,emo_sem_emo_sem,1.01920770190191,2,2,2,1,965323.492321281,26,A
33,1,7/27/89,26,f,132,Kate hugged the pillow,Sensible,edin_semantics,emo_sem_emo_sem,1.09036398073658,1,2,2,1,965325.327107591,86,A
33,1,7/27/89,26,f,133,The bill paid Mike,Non-sensible,edin_semantics,emo_sem_emo_sem,1.43100153689738,2,1,1,1,965327.502832293,59,A
33,1,7/27/89,26,f,134,Liam mixed the nuts,Sensible,edin_semantics,emo_sem_emo_sem,1.01939628622495,1,1,1,1,965329.267009155,83,A
33,1,7/27/89,26,f,135,Beth washed the pan,Sensible,edin_semantics,emo_sem_emo_sem,1.00764343957417,1,2,2,1,965331.019441829,132,A
33,1,7/27/89,26,f,136,The ball squeezed Josh,Non-sensible,edin_semantics,emo_sem_emo_sem,1.0079051485518,1,1,1,1,965332.771835054,1,A
33,1,7/27/89,26,f,137,Adam watched the opera,Sensible,edin_semantics,emo_sem_emo_sem,0.725471525103785,2,2,2,1,965334.241988693,108,A
33,1,7/27/89,26,f,138,The ham ate Tim,Non-sensible,edin_semantics,emo_sem_emo_sem,0.960221208166331,1,1,1,1,965335.947354495,67,A
33,1,7/27/89,26,f,139,Ben climbed the stairs,Sensible,edin_semantics,emo_sem_emo_sem,3.43046817672439,2,1,1,1,965340.122596512,143,A
33,1,7/27/89,26,f,140,The tree hugged Amy,Non-sensible,edin_semantics,emo_sem_emo_sem,0.890479953610338,1,1,1,1,965341.757400332,11,A
33,1,7/27/89,26,f,141,Hugh dialed the hotline,Sensible,edin_semantics,emo_sem_emo_sem,0.984285598853603,1,2,2,1,965343.486288506,138,A
33,1,7/27/89,26,f,142,Fred stored the rice,Sensible,edin_semantics,emo_sem_emo_sem,1.65475784230512,1,1,1,1,965345.885557517,127,A
33,1,7/27/89,26,f,143,Fred lent the car,Sensible,edin_semantics,emo_sem_emo_sem,1.06661357649136,1,2,2,1,965347.696801891,94,A
33,1,7/27/89,26,f,144,The scarf knitted Tom,Non-sensible,edin_semantics,emo_sem_emo_sem,1.60740552819334,2,2,2,1,965350.049038027,66,A
33,1,7/27/89,26,f,145,Liz weighed the sugar,Sensible,edin_semantics,emo_sem_emo_sem,1.92511340719648,2,1,1,1,965352.718804683,139,A
33,1,7/27/89,26,f,146,The tomato sliced Liz,Non-sensible,edin_semantics,emo_sem_emo_sem,1.26701075828169,1,1,1,1,965354.729976061,3,A
33,1,7/27/89,26,f,147,The letter typed Phil,Non-sensible,edin_semantics,emo_sem_emo_sem,0.938066715141758,2,1,1,1,965356.411826549,49,A
33,1,7/27/89,26,f,148,Ian pushed the button,Sensible,edin_semantics,emo_sem_emo_sem,0.77286392939277,2,1,1,1,965357.929012742,101,A
33,1,7/27/89,26,f,149,Jay sold the bed,Sensible,edin_semantics,emo_sem_emo_sem,1.51380835205782,2,1,1,1,965360.187155866,113,A
33,1,7/27/89,26,f,150,Luke watered the plants,Sensible,edin_semantics,emo_sem_emo_sem,1.11368942842819,2,1,1,1,965362.045440813,129,A
33,1,7/27/89,26,f,151,The bath cleaned Jack,Non-sensible,edin_semantics,emo_sem_emo_sem,3.16582145809662,2,2,2,1,965373.853632558,80,B
33,1,7/27/89,26,f,152,Kate lifted the box,Sensible,edin_semantics,emo_sem_emo_sem,2.21871007012669,2,1,1,1,965376.817476318,69,B
33,1,7/27/89,26,f,153,The box labeled Ian,Non-sensible,edin_semantics,emo_sem_emo_sem,1.47811330959667,2,2,2,1,965379.040322415,136,B
33,1,7/27/89,26,f,154,The dessert served Fred,Non-sensible,edin_semantics,emo_sem_emo_sem,1.76041126786731,2,1,1,1,965381.5456929,145,B
33,1,7/27/89,26,f,155,The carrots grated Tom,Non-sensible,edin_semantics,emo_sem_emo_sem,4.66488847869914,2,2,2,1,965386.955615324,140,B
33,1,7/27/89,26,f,156,Matt kicked the bike,Sensible,edin_semantics,emo_sem_emo_sem,1.39587673766073,1,1,1,1,965389.096179307,39,B
33,1,7/27/89,26,f,157,The trousers ironed Eve,Non-sensible,edin_semantics,emo_sem_emo_sem,1.28990579769015,1,2,2,1,965391.130804742,130,B
33,1,7/27/89,26,f,158,The opera watched Adam,Non-sensible,edin_semantics,emo_sem_emo_sem,0.89046552113723,1,2,2,1,965392.765601828,108,B
33,1,7/27/89,26,f,159,Kate served the dish,Sensible,edin_semantics,emo_sem_emo_sem,1.57278682780452,2,2,2,1,965395.082571405,70,B
33,1,7/27/89,26,f,160,Tim cleaned the floor,Sensible,edin_semantics,emo_sem_emo_sem,1.10190835827962,1,1,1,1,965396.929063416,5,B
33,1,7/27/89,26,f,161,The ticket took Tim,Non-sensible,edin_semantics,emo_sem_emo_sem,1.92566568998154,1,2,2,1,965399.598861181,128,B
33,1,7/27/89,26,f,162,Jon trimmed the bushes,Sensible,edin_semantics,emo_sem_emo_sem,1.13805818406399,1,2,2,1,965401.480639955,32,B
33,1,7/27/89,26,f,163,The dress wore Kate,Non-sensible,edin_semantics,emo_sem_emo_sem,1.46768921299372,1,2,2,1,965403.691736092,100,B
33,1,7/27/89,26,f,164,Ian cancelled the plans,Sensible,edin_semantics,emo_sem_emo_sem,2.30244761973154,1,1,1,1,965406.737903019,7,B
33,1,7/27/89,26,f,165,The debt paid Zoe,Non-sensible,edin_semantics,emo_sem_emo_sem,1.85571372124832,1,2,2,1,965409.337097751,134,B
33,1,7/27/89,26,f,166,Liz scrubbed the bowl,Sensible,edin_semantics,emo_sem_emo_sem,0.843061891617253,1,2,2,1,965410.924894034,56,B
33,1,7/27/89,26,f,167,Jon polished the coins,Sensible,edin_semantics,emo_sem_emo_sem,0.937063497724012,2,1,1,1,965412.606709562,29,B
33,1,7/27/89,26,f,168,Ryan painted the picture,Sensible,edin_semantics,emo_sem_emo_sem,0.901749472715892,2,1,1,1,965414.25328419,35,B
33,1,7/27/89,26,f,169,The message typed Eve,Non-sensible,edin_semantics,emo_sem_emo_sem,1.12449165608268,2,2,2,1,965416.123303061,124,B
33,1,7/27/89,26,f,170,The bed sold Jay,Non-sensible,edin_semantics,emo_sem_emo_sem,2.14878664573189,1,1,1,1,965419.016556937,113,B
33,1,7/27/89,26,f,171,The report wrote Alex,Non-sensible,edin_semantics,emo_sem_emo_sem,3.53625598468352,2,1,1,1,965423.297616268,149,B
33,1,7/27/89,26,f,172,The beer drank Jack,Non-sensible,edin_semantics,emo_sem_emo_sem,2.50135248340666,1,1,1,1,965426.54372848,135,B
33,1,7/27/89,26,f,173,Beth took the photo,Sensible,edin_semantics,emo_sem_emo_sem,1.05445052671712,2,1,1,1,965428.34315907,53,B
33,1,7/27/89,26,f,174,The ribbon cut Lucy,Non-sensible,edin_semantics,emo_sem_emo_sem,0.913617779267952,2,1,1,1,965430.001503223,95,B
33,1,7/27/89,26,f,175,Matt drank the juice,Sensible,edin_semantics,emo_sem_emo_sem,1.05488061450887,1,2,2,1,965431.800945359,60,B
33,1,7/27/89,26,f,176,The internet searched Max,Non-sensible,edin_semantics,emo_sem_emo_sem,0.925469729001634,2,1,1,1,965433.471052942,85,B
33,1,7/27/89,26,f,177,The crate lifted Amy,Non-sensible,edin_semantics,emo_sem_emo_sem,1.05433378403541,2,2,2,1,965435.270574297,144,B
33,1,7/27/89,26,f,178,Joe wore the jumper,Sensible,edin_semantics,emo_sem_emo_sem,1.33720102324151,2,1,1,1,965437.352244795,25,B
33,1,7/27/89,26,f,179,The hair brushed Dan,Non-sensible,edin_semantics,emo_sem_emo_sem,1.06628804397769,2,1,1,1,965439.163442665,147,B
33,1,7/27/89,26,f,180,Phil passed the towels,Sensible,edin_semantics,emo_sem_emo_sem,1.24313366913702,2,1,1,1,965441.151084937,43,B
33,1,7/27/89,26,f,181,The plate licked Jane,Non-sensible,edin_semantics,emo_sem_emo_sem,0.854116206523031,1,2,2,1,965442.750600391,96,B
33,1,7/27/89,26,f,182,The portrait painted Jay,Non-sensible,edin_semantics,emo_sem_emo_sem,2.96011857723352,2,2,2,1,965446.45539595,110,B
33,1,7/27/89,26,f,183,Tom dialed the number,Sensible,edin_semantics,emo_sem_emo_sem,2.74844642402604,2,1,1,1,965449.948469003,63,B
33,1,7/27/89,26,f,184,The invite mailed Ian,Non-sensible,edin_semantics,emo_sem_emo_sem,1.37194801226724,1,1,1,1,965452.065470524,89,B
33,1,7/27/89,26,f,185,Rob mailed the parcel,Sensible,edin_semantics,emo_sem_emo_sem,1.04317266889848,1,2,2,1,965453.853152758,14,B
33,1,7/27/89,26,f,186,The hair trimmed Bill,Non-sensible,edin_semantics,emo_sem_emo_sem,5.46501246956177,2,1,1,1,965460.063059018,107,B
33,1,7/27/89,26,f,187,Josh ironed the shirt,Sensible,edin_semantics,emo_sem_emo_sem,7.79381379159167,2,1,1,1,965468.601689626,55,B
33,1,7/27/89,26,f,188,The hotline dialed Hugh,Non-sensible,edin_semantics,emo_sem_emo_sem,1.91293913207483,2,2,2,1,965471.259722037,138,B
33,1,7/27/89,26,f,189,The car lent Fred,Non-sensible,edin_semantics,emo_sem_emo_sem,2.41818293195684,2,2,2,1,965474.423472916,94,B
33,1,7/27/89,26,f,190,The church described Erin,Non-sensible,edin_semantics,emo_sem_emo_sem,1.11322053335607,1,1,1,1,965476.281746638,117,B
33,1,7/27/89,26,f,191,The blanket stroked Ryan,Non-sensible,edin_semantics,emo_sem_emo_sem,1.11383279110305,2,2,2,1,965478.139991174,116,B
33,1,7/27/89,26,f,192,Carl sold the sofa,Sensible,edin_semantics,emo_sem_emo_sem,1.7013160494389,2,2,2,1,965480.586316473,38,B
33,1,7/27/89,26,f,193,The wallet carried Leo,Non-sensible,edin_semantics,emo_sem_emo_sem,1.41872751736082,2,2,2,1,965482.750370754,150,B
33,1,7/27/89,26,f,194,Jen fixed the laptop,Sensible,edin_semantics,emo_sem_emo_sem,1.05518369656056,1,1,1,1,965484.549826361,37,B
33,1,7/27/89,26,f,195,Bill counted the sheets,Sensible,edin_semantics,emo_sem_emo_sem,1.23138627468143,2,2,2,1,965486.525727653,48,B
33,1,7/27/89,26,f,196,Eve taught the lesson,Sensible,edin_semantics,emo_sem_emo_sem,1.47788271075115,2,1,1,1,965488.748568619,15,B
33,1,7/27/89,26,f,197,Ella watched the movie,Sensible,edin_semantics,emo_sem_emo_sem,1.34844231884927,2,1,1,1,965490.842094274,33,B
33,1,7/27/89,26,f,198,The shoes counted Lucy,Non-sensible,edin_semantics,emo_sem_emo_sem,1.01884047558997,1,1,1,1,965492.606230083,123,B
33,1,7/27/89,26,f,199,Erin crushed the garlic,Sensible,edin_semantics,emo_sem_emo_sem,0.960167968412861,1,2,2,1,965494.311610959,6,B
33,1,7/27/89,26,f,200,Rob stroked the fur,Sensible,edin_semantics,emo_sem_emo_sem,1.29012003971729,1,1,1,1,965496.346304067,41,B
33,1,7/27/89,26,f,201,Jen searched the room,Sensible,edin_semantics,emo_sem_emo_sem,1.01872405363247,2,2,2,1,965498.110497606,10,B
33,1,7/27/89,26,f,202,Jane punched the wall,Sensible,edin_semantics,emo_sem_emo_sem,1.10119346959982,1,2,2,1,965499.957030669,50,B
33,1,7/27/89,26,f,203,Liz labeled the jar,Sensible,edin_semantics,emo_sem_emo_sem,1.40788487892132,2,1,1,1,965502.109270525,61,B
33,1,7/27/89,26,f,204,Ewan wrote the story,Sensible,edin_semantics,emo_sem_emo_sem,1.00748981384095,1,2,2,1,965503.861685239,74,B
33,1,7/27/89,26,f,205,The gum swallowed Owen,Non-sensible,edin_semantics,emo_sem_emo_sem,1.07864737545606,1,1,1,1,965505.684782846,97,B
33,1,7/27/89,26,f,206,Amy hugged the tree,Sensible,edin_semantics,emo_sem_emo_sem,1.45475835551042,2,1,1,1,965507.884046918,11,B
33,1,7/27/89,26,f,207,Matt offered the money,Sensible,edin_semantics,emo_sem_emo_sem,0.866821275907569,1,1,1,1,965509.495289881,9,B
33,1,7/27/89,26,f,208,Jen weighed the flour,Sensible,edin_semantics,emo_sem_emo_sem,0.855485367355868,1,2,2,1,965511.094811108,64,B
33,1,7/27/89,26,f,209,The carrots chopped Fred,Non-sensible,edin_semantics,emo_sem_emo_sem,1.00693528610282,2,2,2,1,965512.847239292,102,B
33,1,7/27/89,26,f,210,Matt pushed the trolley,Sensible,edin_semantics,emo_sem_emo_sem,0.827780144056305,1,2,2,1,965514.411478245,26,B
33,1,7/27/89,26,f,211,Dan carried the folder,Sensible,edin_semantics,emo_sem_emo_sem,0.936716797645204,1,2,2,1,965516.093355673,30,B
33,1,7/27/89,26,f,212,The hospital visited Tom,Non-sensible,edin_semantics,emo_sem_emo_sem,0.936464710393921,2,1,1,1,965517.775164145,91,B
33,1,7/27/89,26,f,213,The plants watered Luke,Non-sensible,edin_semantics,emo_sem_emo_sem,1.05418753495906,1,1,1,1,965519.574630978,129,B
33,1,7/27/89,26,f,214,Tim ate the ham,Sensible,edin_semantics,emo_sem_emo_sem,0.842817822354846,1,1,1,1,965521.162371455,67,B
33,1,7/27/89,26,f,215,Jake dusted the shelf,Sensible,edin_semantics,emo_sem_emo_sem,0.865773157333024,2,1,1,1,965522.773638151,47,B
33,1,7/27/89,26,f,216,The pan washed Beth,Non-sensible,edin_semantics,emo_sem_emo_sem,0.736890821252018,2,2,2,1,965524.255580878,132,B
33,1,7/27/89,26,f,217,Jon jumped the fence,Sensible,edin_semantics,emo_sem_emo_sem,0.830398836755194,2,1,1,1,965525.831583262,17,B
33,1,7/27/89,26,f,218,Phil chopped the herbs,Sensible,edin_semantics,emo_sem_emo_sem,1.83086516603362,2,1,1,1,965528.407318164,27,B
33,1,7/27/89,26,f,219,Jack mixed the fruits,Sensible,edin_semantics,emo_sem_emo_sem,0.84343104227446,2,2,2,1,965529.995049981,8,B
33,1,7/27/89,26,f,220,The pillow hugged Kate,Non-sensible,edin_semantics,emo_sem_emo_sem,0.854975099209696,1,2,2,1,965531.594550361,86,B
33,1,7/27/89,26,f,221,The socks knitted Ryan,Non-sensible,edin_semantics,emo_sem_emo_sem,0.948967083706521,1,1,1,1,965533.288162996,141,B
33,1,7/27/89,26,f,222,The sweets offered Tom,Non-sensible,edin_semantics,emo_sem_emo_sem,0.972034350503236,2,2,2,1,965535.005302813,84,B
33,1,7/27/89,26,f,223,The kettle carried John,Non-sensible,edin_semantics,emo_sem_emo_sem,0.878491055686027,2,1,1,1,965536.628371106,105,B
33,1,7/27/89,26,f,224,Max kissed the mirror,Sensible,edin_semantics,emo_sem_emo_sem,1.13717042643111,1,1,1,1,965538.510118449,23,B
33,1,7/27/89,26,f,225,The turnip mashed Ella,Non-sensible,edin_semantics,emo_sem_emo_sem,0.996109645813704,2,1,1,1,965540.250787051,103,B
33,1,7/27/89,26,f,226,The report filed Ian,Non-sensible,edin_semantics,emo_sem_emo_sem,1.16041024157312,2,1,1,1,965542.156077612,99,B
33,1,7/27/89,26,f,227,The desk wiped Lucy,Non-sensible,edin_semantics,emo_sem_emo_sem,1.96022473601624,2,1,1,1,965544.861148671,115,B
33,1,7/27/89,26,f,228,The salt passed Leo,Non-sensible,edin_semantics,emo_sem_emo_sem,0.960049621993676,1,2,2,1,965546.566511908,118,B
33,1,7/27/89,26,f,229,Leo stored the wine,Sensible,edin_semantics,emo_sem_emo_sem,1.00741155771539,1,2,2,1,965548.318934639,52,B
33,1,7/27/89,26,f,230,Josh squeezed the ball,Sensible,edin_semantics,emo_sem_emo_sem,0.925267674378119,1,1,1,1,965549.989042222,1,B
33,1,7/27/89,26,f,231,The lemon squeezed Jay,Non-sensible,edin_semantics,emo_sem_emo_sem,0.853805427090265,1,2,2,1,965551.58855479,76,B
33,1,7/27/89,26,f,232,Will licked the spoon,Sensible,edin_semantics,emo_sem_emo_sem,1.13655816856772,2,1,1,1,965553.470343826,21,B
33,1,7/27/89,26,f,233,Mike paid the bill,Sensible,edin_semantics,emo_sem_emo_sem,1.31309558020439,1,1,1,1,965555.528555136,59,B
33,1,7/27/89,26,f,234,Hugh pulled the lever,Sensible,edin_semantics,emo_sem_emo_sem,1.21942720387597,2,1,1,1,965557.492666378,45,B
33,1,7/27/89,26,f,235,The garage tidied Erin,Non-sensible,edin_semantics,emo_sem_emo_sem,0.913370823604055,1,1,1,1,965559.151012454,77,B
33,1,7/27/89,26,f,236,The stairs climbed Ben,Non-sensible,edin_semantics,emo_sem_emo_sem,0.91312739579007,2,1,1,1,965560.809348909,143,B
33,1,7/27/89,26,f,237,Ben chewed the toffee,Sensible,edin_semantics,emo_sem_emo_sem,0.936820711474866,2,1,1,1,965562.491181115,31,B
33,1,7/27/89,26,f,238,The steak ate Mike,Non-sensible,edin_semantics,emo_sem_emo_sem,0.854377915384248,2,2,2,1,965564.090677646,142,B
33,1,7/27/89,26,f,239,The button pushed Ian,Non-sensible,edin_semantics,emo_sem_emo_sem,0.865888296510093,2,1,1,1,965565.701967435,101,B
33,1,7/27/89,26,f,240,Tim pulled the handle,Sensible,edin_semantics,emo_sem_emo_sem,1.00775825802702,2,1,1,1,965567.454397864,73,B
33,1,7/27/89,26,f,241,Sean read the book,Sensible,edin_semantics,emo_sem_emo_sem,0.949194475309923,2,2,2,1,965569.14799767,4,B
33,1,7/27/89,26,f,242,The poster read Luke,Non-sensible,edin_semantics,emo_sem_emo_sem,0.913391670561396,2,1,1,1,965570.806377423,79,B
33,1,7/27/89,26,f,243,Lily got the kettle,Sensible,edin_semantics,emo_sem_emo_sem,1.16086726996582,2,1,1,1,965572.711626611,13,B
33,1,7/27/89,26,f,244,Jon cut the paper,Sensible,edin_semantics,emo_sem_emo_sem,1.41985004337039,1,2,2,1,965574.875685703,20,B
33,1,7/27/89,26,f,245,The perfume sniffed Tim,Non-sensible,edin_semantics,emo_sem_emo_sem,1.03142270864919,2,1,1,1,965576.651640107,93,B
33,1,7/27/89,26,f,246,Amy measured the thread,Sensible,edin_semantics,emo_sem_emo_sem,1.2902053516591,2,1,1,1,965578.686318461,51,B
33,1,7/27/89,26,f,247,The sugar weighed Liz,Non-sensible,edin_semantics,emo_sem_emo_sem,1.13684970478062,1,1,1,1,965580.568083765,139,B
33,1,7/27/89,26,f,248,Ryan carried the gun,Sensible,edin_semantics,emo_sem_emo_sem,1.07851203088649,2,1,1,1,965582.391103437,75,B
33,1,7/27/89,26,f,249,The curtains measured Rob,Non-sensible,edin_semantics,emo_sem_emo_sem,0.854818907682784,1,2,2,1,965583.990613759,126,B
33,1,7/27/89,26,f,250,The trophy polished Anna,Non-sensible,edin_semantics,emo_sem_emo_sem,1.21982906816993,1,2,2,1,965585.954733339,104,B
33,1,7/27/89,26,f,251,Jeff watered the garden,Sensible,edin_semantics,emo_sem_emo_sem,0.796416448079981,1,2,2,1,965587.495417849,54,B
33,1,7/27/89,26,f,252,Phil sniffed the milk,Sensible,edin_semantics,emo_sem_emo_sem,2.72525022714399,2,2,2,1,965590.964997396,18,B
33,1,7/27/89,26,f,253,The rope pulled Emma,Non-sensible,edin_semantics,emo_sem_emo_sem,0.878893240704201,2,2,2,1,965592.588018543,120,B
33,1,7/27/89,26,f,254,Luke swallowed the pill,Sensible,edin_semantics,emo_sem_emo_sem,3.20734497590456,1,2,2,1,965596.539774622,22,B
33,1,7/27/89,26,f,255,The donut iced Joe,Non-sensible,edin_semantics,emo_sem_emo_sem,2.784118695301,1,1,1,1,965600.068121931,119,B
33,1,7/27/89,26,f,256,The rose kissed Hugh,Non-sensible,edin_semantics,emo_sem_emo_sem,1.73681481019594,2,2,2,1,965602.549784347,98,B
33,1,7/27/89,26,f,257,John described the pen,Sensible,edin_semantics,emo_sem_emo_sem,2.31294868967962,2,2,2,1,965605.607635486,42,B
33,1,7/27/89,26,f,258,Dan whisked the eggs,Sensible,edin_semantics,emo_sem_emo_sem,1.78369502187707,1,2,2,1,965608.136294856,62,B
33,1,7/27/89,26,f,259,Leah sucked the lolly,Sensible,edin_semantics,emo_sem_emo_sem,1.68981978006195,1,2,2,1,965610.570867308,12,B
33,1,7/27/89,26,f,260,The problem solved Phil,Non-sensible,edin_semantics,emo_sem_emo_sem,2.81877363717649,2,1,1,1,965614.134504908,109,B
33,1,7/27/89,26,f,261,The rice stored Fred,Non-sensible,edin_semantics,emo_sem_emo_sem,1.3247467582114,1,1,1,1,965616.204469064,127,B
33,1,7/27/89,26,f,262,Carl brushed the teeth,Sensible,edin_semantics,emo_sem_emo_sem,1.80687967292033,2,2,2,1,965618.756625469,72,B
33,1,7/27/89,26,f,263,The radio got Ben,Non-sensible,edin_semantics,emo_sem_emo_sem,1.90181874856353,2,2,2,1,965621.40289028,88,B
33,1,7/27/89,26,f,264,The door kicked Max,Non-sensible,edin_semantics,emo_sem_emo_sem,2.2067102676956,2,2,2,1,965624.354928274,114,B
33,1,7/27/89,26,f,265,Tom knitted the scarf,Sensible,edin_semantics,emo_sem_emo_sem,2.07802677899599,1,2,2,1,965627.177653523,66,B
33,1,7/27/89,26,f,266,The bowl dented Ian,Non-sensible,edin_semantics,emo_sem_emo_sem,2.18326454923954,1,2,2,1,965630.106158883,146,B
33,1,7/27/89,26,f,267,Joe solved the puzzle,Sensible,edin_semantics,emo_sem_emo_sem,3.00672104395926,2,2,2,1,965633.858049858,34,B
33,1,7/27/89,26,f,268,Mark washed the dishes,Sensible,edin_semantics,emo_sem_emo_sem,1.13669800327625,1,1,1,1,965635.739806823,57,B
33,1,7/27/89,26,f,269,Will mashed the potatoes,Sensible,edin_semantics,emo_sem_emo_sem,2.5830835980596,2,2,2,1,965639.068209488,28,B
33,1,7/27/89,26,f,270,The monitor punched Erin,Non-sensible,edin_semantics,emo_sem_emo_sem,0.912894872599281,1,1,1,1,965640.726511626,125,B
33,1,7/27/89,26,f,271,The office entered Joe,Non-sensible,edin_semantics,emo_sem_emo_sem,2.45310888369568,2,1,1,1,965643.925556965,133,B
33,1,7/27/89,26,f,272,The ice crushed Josh,Non-sensible,edin_semantics,emo_sem_emo_sem,1.57244622136932,2,1,1,1,965646.242531995,81,B
33,1,7/27/89,26,f,273,The hedge jumped Sara,Non-sensible,edin_semantics,emo_sem_emo_sem,1.05389182956424,1,2,2,1,965648.041960982,92,B
33,1,7/27/89,26,f,274,The house dusted Alex,Non-sensible,edin_semantics,emo_sem_emo_sem,2.20741328969598,2,2,2,1,965650.994019502,122,B
33,1,7/27/89,26,f,275,The rope pulled Andy,Non-sensible,edin_semantics,emo_sem_emo_sem,1.68970432027709,1,2,2,1,965653.428606067,148,B
33,1,7/27/89,26,f,276,The shed built Rose,Non-sensible,edin_semantics,emo_sem_emo_sem,1.51345684111584,1,1,1,1,965655.686814938,121,B
33,1,7/27/89,26,f,277,Ryan entered the room,Sensible,edin_semantics,emo_sem_emo_sem,2.75964057364035,1,2,2,1,965659.191562582,58,B
33,1,7/27/89,26,f,278,The party cancelled Phil,Non-sensible,edin_semantics,emo_sem_emo_sem,0.807773524313234,1,2,2,1,965660.744037463,82,B
33,1,7/27/89,26,f,279,Luke climbed the hill,Sensible,edin_semantics,emo_sem_emo_sem,2.11346780986059,2,2,2,1,965663.602041137,68,B
33,1,7/27/89,26,f,280,The nuts mixed Liam,Non-sensible,edin_semantics,emo_sem_emo_sem,1.14882513228804,2,1,1,1,965665.495557363,83,B
33,1,7/27/89,26,f,281,Mary iced the cake,Sensible,edin_semantics,emo_sem_emo_sem,1.06652088800911,2,2,2,1,965667.306765817,44,B
33,1,7/27/89,26,f,282,The candy sucked Sam,Non-sensible,edin_semantics,emo_sem_emo_sem,1.00698563933838,2,1,1,1,965669.059186945,87,B
33,1,7/27/89,26,f,283,Max lent the bucket,Sensible,edin_semantics,emo_sem_emo_sem,1.6893329245504,1,1,1,1,965671.493757152,19,B
33,1,7/27/89,26,f,284,Beth wiped the table,Sensible,edin_semantics,emo_sem_emo_sem,1.04297606647015,1,2,2,1,965673.28148557,40,B
33,1,7/27/89,26,f,285,The cream whisked Tom,Non-sensible,edin_semantics,emo_sem_emo_sem,1.80665163975209,1,1,1,1,965675.833656728,137,B
33,1,7/27/89,26,f,286,Mary visited the museum,Sensible,edin_semantics,emo_sem_emo_sem,1.007201485103,2,2,2,1,965677.586071441,16,B
33,1,7/27/89,26,f,287,The fat chewed Adam,Non-sensible,edin_semantics,emo_sem_emo_sem,3.28906390315387,2,2,2,1,965681.620175063,106,B
33,1,7/27/89,26,f,288,Erin posted the card,Sensible,edin_semantics,emo_sem_emo_sem,1.39527249801904,1,2,2,1,965683.760767269,36,B
33,1,7/27/89,26,f,289,The rules taught Josh,Non-sensible,edin_semantics,emo_sem_emo_sem,1.26572755072266,2,2,2,1,965685.771884445,90,B
33,1,7/27/89,26,f,290,The pot scrubbed Josh,Non-sensible,edin_semantics,emo_sem_emo_sem,0.829660856048577,1,1,1,1,965687.347849625,131,B
33,1,7/27/89,26,f,291,The radio fixed Luke,Non-sensible,edin_semantics,emo_sem_emo_sem,1.06600805395283,1,2,2,1,965689.15902312,112,B
33,1,7/27/89,26,f,292,Andy grated the cheese,Sensible,edin_semantics,emo_sem_emo_sem,6.67623304668814,2,1,1,1,965696.580393705,65,B
33,1,7/27/89,26,f,293,The onion sliced Liam,Non-sensible,edin_semantics,emo_sem_emo_sem,1.11324202176183,2,2,2,1,965698.438631185,78,B
33,1,7/27/89,26,f,294,Kate built the house,Sensible,edin_semantics,emo_sem_emo_sem,1.04271820618305,1,2,2,1,965700.226342605,46,B
33,1,7/27/89,26,f,295,Sam tidied the room,Sensible,edin_semantics,emo_sem_emo_sem,1.14836008579005,2,2,2,1,965702.119859793,2,B
33,1,7/27/89,26,f,296,The gift posted Jack,Non-sensible,edin_semantics,emo_sem_emo_sem,0.960508895572275,2,1,1,1,965703.825249008,111,B
33,1,7/27/89,26,f,297,Liz sliced the tomato,Sensible,edin_semantics,emo_sem_emo_sem,1.0076723046368,2,1,1,1,965705.577659873,3,B
33,1,7/27/89,26,f,298,Lara filed the papers,Sensible,edin_semantics,emo_sem_emo_sem,0.960265147034079,2,2,2,1,965707.283017016,24,B
33,1,7/27/89,26,f,299,Lily dented the lorry,Sensible,edin_semantics,emo_sem_emo_sem,1.05487676593475,2,1,1,1,965709.082474548,71,B
33,1,7/27/89,26,f,300,Phil typed the letter,Sensible,edin_semantics,emo_sem_emo_sem,0.996092647546902,1,1,1,1,965710.823162714,49,B
