subject_column,AssignedList_column,subject_dob_column,subject_age_column,subject_gender_column,trialnum_column,Stim_column,Type_column,Experiment_column,OrderGroup_column,ReactionTime_column,StimSide_column,StimPosition_column,Response_column,Valid_column,TrialEndSecs_column,PairID_column,List_column
34,2,13/2/95,21,f,1,Sara jumped the hedge,Sensible,edin_semantics,sem_emo_sem_emo,1.38925415521953,2,1,1,1,1033217.44127554,92,A
34,2,13/2/95,21,f,2,Jane licked the plate,Sensible,edin_semantics,sem_emo_sem_emo,0.947108180611394,2,1,1,1,1033219.13486668,96,A
34,2,13/2/95,21,f,3,Kate hugged the pillow,Sensible,edin_semantics,sem_emo_sem_emo,0.724034371087328,2,1,1,1,1033220.60500364,86,A
34,2,13/2/95,21,f,4,The picture painted Ryan,Non-sensible,edin_semantics,sem_emo_sem_emo,0.959825437632389,2,2,2,1,1033222.31052692,35,A
34,2,13/2/95,21,f,5,John carried the kettle,Sensible,edin_semantics,sem_emo_sem_emo,1.92673273105174,1,2,2,1,1033224.98017363,105,A
34,2,13/2/95,21,f,6,Anna polished the trophy,Sensible,edin_semantics,sem_emo_sem_emo,1.18555738858413,1,1,1,1,1033226.90898784,104,A
34,2,13/2/95,21,f,7,Phil solved the problem,Sensible,edin_semantics,sem_emo_sem_emo,1.09154712292366,2,2,2,1,1033228.74372091,109,A
34,2,13/2/95,21,f,8,The ball squeezed Josh,Non-sensible,edin_semantics,sem_emo_sem_emo,1.18538804759737,1,2,2,1,1033230.67257778,1,A
34,2,13/2/95,21,f,9,The plans cancelled Ian,Non-sensible,edin_semantics,sem_emo_sem_emo,1.22088328038808,1,2,2,1,1033232.63666978,7,A
34,2,13/2/95,21,f,10,The bushes trimmed Jon,Non-sensible,edin_semantics,sem_emo_sem_emo,1.65605291654356,1,1,1,1,1033235.03598979,32,A
34,2,13/2/95,21,f,11,The tree hugged Amy,Non-sensible,edin_semantics,sem_emo_sem_emo,1.23263291991316,1,2,2,1,1033237.01185548,11,A
34,2,13/2/95,21,f,12,Erin tidied the garage,Sensible,edin_semantics,sem_emo_sem_emo,0.950436309794895,1,2,2,1,1033238.70540974,77,A
34,2,13/2/95,21,f,13,The house built Kate,Non-sensible,edin_semantics,sem_emo_sem_emo,0.950080629438162,2,1,1,1,1033240.39905445,46,A
34,2,13/2/95,21,f,14,The tomato sliced Liz,Non-sensible,edin_semantics,sem_emo_sem_emo,1.7383295786567,1,2,2,1,1033242.88064438,3,A
34,2,13/2/95,21,f,15,The photo took Beth,Non-sensible,edin_semantics,sem_emo_sem_emo,1.10330830852035,1,2,2,1,1033244.72714665,53,A
34,2,13/2/95,21,f,16,The room tidied Sam,Non-sensible,edin_semantics,sem_emo_sem_emo,1.0795623944141,2,1,1,1,1033246.55015542,2,A
34,2,13/2/95,21,f,17,Sam sucked the candy,Sensible,edin_semantics,sem_emo_sem_emo,0.879790940787643,2,2,2,1,1033248.17317946,87,A
34,2,13/2/95,21,f,18,The sofa sold Carl,Non-sensible,edin_semantics,sem_emo_sem_emo,1.18538804759737,2,1,1,1,1033250.10199207,38,A
34,2,13/2/95,21,f,19,The card posted Erin,Non-sensible,edin_semantics,sem_emo_sem_emo,1.00920792005491,1,1,1,1,1033251.85446451,36,A
34,2,13/2/95,21,f,20,The movie watched Ella,Non-sensible,edin_semantics,sem_emo_sem_emo,1.06766169506591,2,2,2,1,1033253.66563736,33,A
34,2,13/2/95,21,f,21,Rob measured the curtains,Sensible,edin_semantics,sem_emo_sem_emo,0.891068477998488,2,1,1,1,1033255.30046011,126,A
34,2,13/2/95,21,f,22,The parcel mailed Rob,Non-sensible,edin_semantics,sem_emo_sem_emo,0.856429572100751,2,1,1,1,1033256.89996369,14,A
34,2,13/2/95,21,f,23,The dishes washed Mark,Non-sensible,edin_semantics,sem_emo_sem_emo,2.4553965915693,1,2,2,1,1033260.09901769,57,A
34,2,13/2/95,21,f,24,Ian pushed the button,Sensible,edin_semantics,sem_emo_sem_emo,0.867863942170516,2,2,2,1,1033261.71029914,101,A
34,2,13/2/95,21,f,25,The handle pulled Tim,Non-sensible,edin_semantics,sem_emo_sem_emo,0.797316072508693,2,2,2,1,1033263.25098365,73,A
34,2,13/2/95,21,f,26,Ian filed the report,Sensible,edin_semantics,sem_emo_sem_emo,1.57392923848238,1,2,2,1,1033265.56796702,99,A
34,2,13/2/95,21,f,27,Adam chewed the fat,Sensible,edin_semantics,sem_emo_sem_emo,1.17381672933698,1,1,1,1,1033267.48500498,106,A
34,2,13/2/95,21,f,28,Eve typed the message,Sensible,edin_semantics,sem_emo_sem_emo,0.797143524279818,2,1,1,1,1033269.02571515,124,A
34,2,13/2/95,21,f,29,The lever pulled Hugh,Non-sensible,edin_semantics,sem_emo_sem_emo,1.44406581460498,1,2,2,1,1033271.21338737,45,A
34,2,13/2/95,21,f,30,Ian dented the bowl,Sensible,edin_semantics,sem_emo_sem_emo,1.0796958146384,1,1,1,1,1033273.03627619,146,A
34,2,13/2/95,21,f,31,Lucy cut the ribbon,Sensible,edin_semantics,sem_emo_sem_emo,0.938289296114817,2,2,2,1,1033274.71816035,95,A
34,2,13/2/95,21,f,32,Luke read the poster,Sensible,edin_semantics,sem_emo_sem_emo,0.750388393993489,2,2,2,1,1033276.21178761,79,A
34,2,13/2/95,21,f,33,Lucy counted the shoes,Sensible,edin_semantics,sem_emo_sem_emo,0.773807171848603,2,2,2,1,1033277.72897798,123,A
34,2,13/2/95,21,f,34,The juice drank Matt,Non-sensible,edin_semantics,sem_emo_sem_emo,0.86772378673777,2,1,1,1,1033279.34026456,60,A
34,2,13/2/95,21,f,35,Ella mashed the turnip,Sensible,edin_semantics,sem_emo_sem_emo,0.667977990815416,2,2,2,1,1033280.75161836,103,A
34,2,13/2/95,21,f,36,Adam watched the opera,Sensible,edin_semantics,sem_emo_sem_emo,2.2191472138511,1,1,1,1,1033283.71544063,108,A
34,2,13/2/95,21,f,37,The wine stored Leo,Non-sensible,edin_semantics,sem_emo_sem_emo,1.20917212753557,2,1,1,1,1033285.6678032,52,A
34,2,13/2/95,21,f,38,The eggs whisked Dan,Non-sensible,edin_semantics,sem_emo_sem_emo,1.00911330711097,2,1,1,1,1033287.42020059,62,A
34,2,13/2/95,21,f,39,The wall punched Jane,Non-sensible,edin_semantics,sem_emo_sem_emo,0.961487417342141,2,1,1,1,1033289.12552887,50,A
34,2,13/2/95,21,f,40,The papers filed Lara,Non-sensible,edin_semantics,sem_emo_sem_emo,2.29139458772261,2,1,1,1,1033292.15994584,24,A
34,2,13/2/95,21,f,41,The folder carried Dan,Non-sensible,edin_semantics,sem_emo_sem_emo,1.57347156875767,1,1,1,1,1033294.47704723,30,A
34,2,13/2/95,21,f,42,Tim took the ticket,Sensible,edin_semantics,sem_emo_sem_emo,1.40894486405887,2,1,1,1,1033296.62918927,128,A
34,2,13/2/95,21,f,43,Luke watered the plants,Sensible,edin_semantics,sem_emo_sem_emo,0.96212212566752,2,2,2,1,1033298.33456662,129,A
34,2,13/2/95,21,f,44,Ryan stroked the blanket,Sensible,edin_semantics,sem_emo_sem_emo,1.39709195226897,1,1,1,1,1033300.4750796,116,A
34,2,13/2/95,21,f,45,The fence jumped Jon,Non-sensible,edin_semantics,sem_emo_sem_emo,1.98524455667939,2,2,2,1,1033303.20369388,17,A
34,2,13/2/95,21,f,46,The money offered Matt,Non-sensible,edin_semantics,sem_emo_sem_emo,1.27956957870629,2,2,2,1,1033305.22665371,9,A
34,2,13/2/95,21,f,47,Alex wrote the report,Sensible,edin_semantics,sem_emo_sem_emo,1.31432266149204,1,2,2,1,1033307.2847874,149,A
34,2,13/2/95,21,f,48,The lorry dented Lily,Non-sensible,edin_semantics,sem_emo_sem_emo,1.23249084025156,2,2,2,1,1033309.2606842,71,A
34,2,13/2/95,21,f,49,The number dialed Tom,Non-sensible,edin_semantics,sem_emo_sem_emo,1.11501144338399,2,2,2,1,1033311.11894606,63,A
34,2,13/2/95,21,f,50,The pill swallowed Luke,Non-sensible,edin_semantics,sem_emo_sem_emo,1.07982121687382,1,1,1,1,1033312.94191698,22,A
34,2,13/2/95,21,f,51,The herbs chopped Phil,Non-sensible,edin_semantics,sem_emo_sem_emo,1.91502863401547,1,2,2,1,1033315.59994266,27,A
34,2,13/2/95,21,f,52,Rose built the shed,Sensible,edin_semantics,sem_emo_sem_emo,1.20916827884503,2,2,2,1,1033317.55228469,121,A
34,2,13/2/95,21,f,53,Tim sniffed the perfume,Sensible,edin_semantics,sem_emo_sem_emo,1.09147271548864,2,2,2,1,1033319.38706908,93,A
34,2,13/2/95,21,f,54,Fred stored the rice,Sensible,edin_semantics,sem_emo_sem_emo,1.42048699664883,1,2,1,0,1033321.5510884,127,A
34,2,13/2/95,21,f,55,The mirror kissed Max,Non-sensible,edin_semantics,sem_emo_sem_emo,2.06767484464217,1,2,2,1,1033324.36207427,23,A
34,2,13/2/95,21,f,56,Josh scrubbed the pot,Sensible,edin_semantics,sem_emo_sem_emo,0.868258109083399,2,2,2,1,1033325.97327747,131,A
34,2,13/2/95,21,f,57,Tom grated the carrots,Sensible,edin_semantics,sem_emo_sem_emo,1.17371858854312,2,1,1,1,1033327.8903831,140,A
34,2,13/2/95,21,f,58,Erin described the church,Sensible,edin_semantics,sem_emo_sem_emo,1.12675498914905,1,2,2,1,1033329.76042089,117,A
34,2,13/2/95,21,f,59,Jay squeezed the lemon,Sensible,edin_semantics,sem_emo_sem_emo,2.39683312980924,1,1,1,1,1033332.90060802,76,A
34,2,13/2/95,21,f,60,Tom whisked the cream,Sensible,edin_semantics,sem_emo_sem_emo,1.32695492706262,1,2,2,1,1033334.97060842,137,A
34,2,13/2/95,21,f,61,The trolley pushed Matt,Non-sensible,edin_semantics,sem_emo_sem_emo,0.985708641004749,1,1,1,1,1033336.69946837,26,A
34,2,13/2/95,21,f,62,The bike kicked Matt,Non-sensible,edin_semantics,sem_emo_sem_emo,1.47957676276565,1,2,2,1,1033338.92235905,39,A
34,2,13/2/95,21,f,63,Phil cancelled the party,Sensible,edin_semantics,sem_emo_sem_emo,3.31426749727689,2,1,1,1,1033342.97995874,82,A
34,2,13/2/95,21,f,64,The shelf dusted Jake,Non-sensible,edin_semantics,sem_emo_sem_emo,2.51394241373055,1,2,2,1,1033346.23778499,47,A
34,2,13/2/95,21,f,65,The bowl scrubbed Liz,Non-sensible,edin_semantics,sem_emo_sem_emo,1.19679323199671,2,1,1,1,1033348.17836777,56,A
34,2,13/2/95,21,f,66,Joe entered the office,Sensible,edin_semantics,sem_emo_sem_emo,4.49016250332352,1,2,2,1,1033353.41210622,133,A
34,2,13/2/95,21,f,67,Liam mixed the nuts,Sensible,edin_semantics,sem_emo_sem_emo,3.007723620045,1,2,2,1,1033357.16389328,83,A
34,2,13/2/95,21,f,68,The lesson taught Eve,Non-sensible,edin_semantics,sem_emo_sem_emo,2.13750012824312,1,2,2,1,1033360.04538148,15,A
34,2,13/2/95,21,f,69,Ian mailed the invite,Sensible,edin_semantics,sem_emo_sem_emo,1.5616882534232,1,2,2,1,1033362.35055235,89,A
34,2,13/2/95,21,f,70,Max searched the internet,Sensible,edin_semantics,sem_emo_sem_emo,1.8672593816882,1,2,2,1,1033364.9615692,85,A
34,2,13/2/95,21,f,71,Josh taught the rules,Sensible,edin_semantics,sem_emo_sem_emo,1.33812919189222,2,1,1,1,1033367.04330609,90,A
34,2,13/2/95,21,f,72,The coins polished Jon,Non-sensible,edin_semantics,sem_emo_sem_emo,2.29105109488592,1,2,2,1,1033370.07765987,29,A
34,2,13/2/95,21,f,73,The laptop fixed Jen,Non-sensible,edin_semantics,sem_emo_sem_emo,2.12563470820896,2,2,2,1,1033372.94743147,37,A
34,2,13/2/95,21,f,74,The bucket lent Max,Non-sensible,edin_semantics,sem_emo_sem_emo,1.8320819841465,2,2,2,1,1033375.52307176,19,A
34,2,13/2/95,21,f,75,Mike ate the steak,Sensible,edin_semantics,sem_emo_sem_emo,1.17346521839499,2,1,1,1,1033377.44014852,142,A
34,2,13/2/95,21,f,76,The milk sniffed Phil,Non-sensible,edin_semantics,sem_emo_sem_emo,2.18490600283258,1,1,1,1,1033380.36870423,18,A
34,2,13/2/95,21,f,77,The puzzle solved Joe,Non-sensible,edin_semantics,sem_emo_sem_emo,1.64385138009675,2,1,1,1,1033382.7561848,34,A
34,2,13/2/95,21,f,78,The gun carried Ryan,Non-sensible,edin_semantics,sem_emo_sem_emo,1.10268322192132,2,2,2,1,1033384.60272876,75,A
34,2,13/2/95,21,f,79,The box lifted Kate,Non-sensible,edin_semantics,sem_emo_sem_emo,1.9964730234351,1,2,2,1,1033387.34304746,69,A
34,2,13/2/95,21,f,80,Luke fixed the radio,Sensible,edin_semantics,sem_emo_sem_emo,1.44382046256214,1,1,1,1,1033389.53062443,112,A
34,2,13/2/95,21,f,81,Jay sold the bed,Sensible,edin_semantics,sem_emo_sem_emo,1.7614718945697,1,2,2,1,1033392.03573962,113,A
34,2,13/2/95,21,f,82,The letter typed Phil,Non-sensible,edin_semantics,sem_emo_sem_emo,1.2558990343241,2,2,2,1,1033394.03520306,49,A
34,2,13/2/95,21,f,83,The garden watered Jeff,Non-sensible,edin_semantics,sem_emo_sem_emo,2.07907297310885,1,1,1,1,1033396.85783433,54,A
34,2,13/2/95,21,f,84,Jack cleaned the bath,Sensible,edin_semantics,sem_emo_sem_emo,1.86745149397757,2,1,1,1,1033399.46881046,80,A
34,2,13/2/95,21,f,85,The shirt ironed Josh,Non-sensible,edin_semantics,sem_emo_sem_emo,1.03219468577299,2,2,2,1,1033401.24474562,55,A
34,2,13/2/95,21,f,86,The thread measured Amy,Non-sensible,edin_semantics,sem_emo_sem_emo,2.37327612086665,1,2,2,1,1033404.36146426,51,A
34,2,13/2/95,21,f,87,Liam sliced the onion,Sensible,edin_semantics,sem_emo_sem_emo,0.984999525244348,2,1,1,1,1033406.09034474,78,A
34,2,13/2/95,21,f,88,Bill trimmed the hair,Sensible,edin_semantics,sem_emo_sem_emo,1.64410314662382,1,2,2,1,1033408.47789843,107,A
34,2,13/2/95,21,f,89,The scarf knitted Tom,Non-sensible,edin_semantics,sem_emo_sem_emo,1.35025343426969,1,1,1,1,1033410.57137661,66,A
34,2,13/2/95,21,f,90,The museum visited Mary,Non-sensible,edin_semantics,sem_emo_sem_emo,0.9853154362645,1,1,1,1,1033412.3002526,16,A
34,2,13/2/95,21,f,91,The toffee chewed Ben,Non-sensible,edin_semantics,sem_emo_sem_emo,1.06794008146971,2,2,2,1,1033414.11146298,31,A
34,2,13/2/95,21,f,92,Leo passed the salt,Sensible,edin_semantics,sem_emo_sem_emo,1.06811968563125,2,1,1,1,1033415.92267368,118,A
34,2,13/2/95,21,f,93,Tom offered the sweets,Sensible,edin_semantics,sem_emo_sem_emo,0.856116868322715,2,1,1,1,1033417.52219587,84,A
34,2,13/2/95,21,f,94,Fred chopped the carrots,Sensible,edin_semantics,sem_emo_sem_emo,0.903533326811157,2,1,1,1,1033419.16876087,102,A
34,2,13/2/95,21,f,95,The ham ate Tim,Non-sensible,edin_semantics,sem_emo_sem_emo,1.05621289252304,2,2,2,1,1033420.96825048,67,A
34,2,13/2/95,21,f,96,The fur stroked Rob,Non-sensible,edin_semantics,sem_emo_sem_emo,0.91518931556493,2,2,2,1,1033422.6265478,41,A
34,2,13/2/95,21,f,97,The hill climbed Luke,Non-sensible,edin_semantics,sem_emo_sem_emo,4.0788356391713,1,1,1,1,1033427.44865855,68,A
34,2,13/2/95,21,f,98,Jack drank the beer,Sensible,edin_semantics,sem_emo_sem_emo,2.04369223804679,1,2,2,1,1033430.23603802,135,A
34,2,13/2/95,21,f,99,Andy pulled the rope,Sensible,edin_semantics,sem_emo_sem_emo,1.25556612515356,2,1,1,1,1033432.23541422,148,A
34,2,13/2/95,21,f,100,Zoe paid the debt,Sensible,edin_semantics,sem_emo_sem_emo,2.67839471099433,1,1,1,1,1033435.65791503,134,A
34,2,13/2/95,21,f,101,Lucy wiped the desk,Sensible,edin_semantics,sem_emo_sem_emo,0.984947568387724,2,2,2,1,1033437.38684938,115,A
34,2,13/2/95,21,f,102,The sheets counted Bill,Non-sensible,edin_semantics,sem_emo_sem_emo,1.11373432946857,1,1,1,1,1033439.24507596,48,A
34,2,13/2/95,21,f,103,The cake iced Mary,Non-sensible,edin_semantics,sem_emo_sem_emo,1.44391603767872,2,1,1,1,1033441.43265903,44,A
34,2,13/2/95,21,f,104,The dish served Kate,Non-sensible,edin_semantics,sem_emo_sem_emo,1.36118010198697,1,1,1,1,1033443.53789519,70,A
34,2,13/2/95,21,f,105,Tom visited the hospital,Sensible,edin_semantics,sem_emo_sem_emo,1.83172213437501,1,2,2,1,1033446.1136333,91,A
34,2,13/2/95,21,f,106,Josh crushed the ice,Sensible,edin_semantics,sem_emo_sem_emo,1.50223895825911,1,2,2,1,1033448.35997226,81,A
34,2,13/2/95,21,f,107,The kettle got Lily,Non-sensible,edin_semantics,sem_emo_sem_emo,1.16154976573307,1,2,2,1,1033450.26530612,13,A
34,2,13/2/95,21,f,108,Kate wore the dress,Sensible,edin_semantics,sem_emo_sem_emo,1.14960544812493,2,1,1,1,1033452.15882973,100,A
34,2,13/2/95,21,f,109,Joe iced the donut,Sensible,edin_semantics,sem_emo_sem_emo,4.46617284067906,1,2,2,1,1033457.36904676,119,A
34,2,13/2/95,21,f,110,The cheese grated Andy,Non-sensible,edin_semantics,sem_emo_sem_emo,2.05515258654486,2,2,2,1,1033460.16819352,65,A
34,2,13/2/95,21,f,111,The story wrote Ewan,Non-sensible,edin_semantics,sem_emo_sem_emo,1.25533328112215,2,1,1,1,1033462.16758318,74,A
34,2,13/2/95,21,f,112,Amy lifted the crate,Sensible,edin_semantics,sem_emo_sem_emo,0.891377332853153,2,1,1,1,1033463.80242613,144,A
34,2,13/2/95,21,f,113,Max kicked the door,Sensible,edin_semantics,sem_emo_sem_emo,0.879680291749537,2,1,1,1,1033465.4254646,114,A
34,2,13/2/95,21,f,114,Owen swallowed the gum,Sensible,edin_semantics,sem_emo_sem_emo,1.05601789371576,2,2,2,1,1033467.22488493,97,A
34,2,13/2/95,21,f,115,Ryan knitted the socks,Sensible,edin_semantics,sem_emo_sem_emo,1.25583681417629,2,2,2,1,1033469.2242871,141,A
34,2,13/2/95,21,f,116,The pen described John,Non-sensible,edin_semantics,sem_emo_sem_emo,0.973585039959289,2,1,1,1,1033470.94146316,42,A
34,2,13/2/95,21,f,117,Dan brushed the hair,Sensible,edin_semantics,sem_emo_sem_emo,1.17406079859938,1,2,2,1,1033472.85849181,147,A
34,2,13/2/95,21,f,118,Erin punched the monitor,Sensible,edin_semantics,sem_emo_sem_emo,0.938532723928802,2,2,2,1,1033474.54036347,125,A
34,2,13/2/95,21,f,119,The potatoes mashed Will,Non-sensible,edin_semantics,sem_emo_sem_emo,1.75039769487921,2,1,1,1,1033477.03373479,28,A
34,2,13/2/95,21,f,120,The bill paid Mike,Non-sensible,edin_semantics,sem_emo_sem_emo,3.45501846075058,1,2,2,1,1033481.23245235,59,A
34,2,13/2/95,21,f,121,The jar labeled Liz,Non-sensible,edin_semantics,sem_emo_sem_emo,1.87886373430956,2,2,2,1,1033483.85517074,61,A
34,2,13/2/95,21,f,122,Eve ironed the trousers,Sensible,edin_semantics,sem_emo_sem_emo,1.30278084962629,1,1,1,1,1033485.90163562,130,A
34,2,13/2/95,21,f,123,The teeth brushed Carl,Non-sensible,edin_semantics,sem_emo_sem_emo,0.950075818574987,2,1,1,1,1033487.59523125,72,A
34,2,13/2/95,21,f,124,Leo carried the wallet,Sensible,edin_semantics,sem_emo_sem_emo,1.07922980608419,2,1,1,1,1033489.41821083,150,A
34,2,13/2/95,21,f,125,Liz weighed the sugar,Sensible,edin_semantics,sem_emo_sem_emo,0.938426565029658,2,2,2,1,1033491.10005427,139,A
34,2,13/2/95,21,f,126,Emma pulled the rope,Sensible,edin_semantics,sem_emo_sem_emo,1.06788812449668,2,1,1,1,1033492.91130987,120,A
34,2,13/2/95,21,f,127,The floor cleaned Tim,Non-sensible,edin_semantics,sem_emo_sem_emo,1.11499412439298,2,2,2,1,1033494.76955184,5,A
34,2,13/2/95,21,f,128,The flour weighed Jen,Non-sensible,edin_semantics,sem_emo_sem_emo,0.915096947690472,2,1,1,1,1033496.42786199,64,A
34,2,13/2/95,21,f,129,Ben climbed the stairs,Sensible,edin_semantics,sem_emo_sem_emo,0.809540700865909,2,2,2,1,1033497.98041641,143,A
34,2,13/2/95,21,f,130,The paper cut Jon,Non-sensible,edin_semantics,sem_emo_sem_emo,1.07991582981776,1,1,1,1,1033499.80330683,20,A
34,2,13/2/95,21,f,131,Alex dusted the house,Sensible,edin_semantics,sem_emo_sem_emo,1.0680305249989,2,1,1,1,1033501.61453389,122,A
34,2,13/2/95,21,f,132,The lolly sucked Leah,Non-sensible,edin_semantics,sem_emo_sem_emo,0.832637794897892,2,1,1,1,1033503.19056065,12,A
34,2,13/2/95,21,f,133,Hugh kissed the rose,Sensible,edin_semantics,sem_emo_sem_emo,0.914694762672298,2,1,1,1,1033504.84885413,98,A
34,2,13/2/95,21,f,134,The jumper wore Joe,Non-sensible,edin_semantics,sem_emo_sem_emo,0.973981131333858,2,2,2,1,1033506.56604622,25,A
34,2,13/2/95,21,f,135,The room entered Ryan,Non-sensible,edin_semantics,sem_emo_sem_emo,1.10317168105394,1,1,1,1,1033508.41248563,58,A
34,2,13/2/95,21,f,136,The fruits mixed Jack,Non-sensible,edin_semantics,sem_emo_sem_emo,1.2088215786498,1,1,1,1,1033510.36484499,8,A
34,2,13/2/95,21,f,137,The book read Sean,Non-sensible,edin_semantics,sem_emo_sem_emo,1.30323306715582,1,1,1,1,1033512.41128645,4,A
34,2,13/2/95,21,f,138,The table wiped Beth,Non-sensible,edin_semantics,sem_emo_sem_emo,1.420763779548,2,1,1,1,1033514.57536896,40,A
34,2,13/2/95,21,f,139,The towels passed Phil,Non-sensible,edin_semantics,sem_emo_sem_emo,1.67950569093227,2,2,2,1,1033516.99814527,43,A
34,2,13/2/95,21,f,140,Beth washed the pan,Sensible,edin_semantics,sem_emo_sem_emo,1.00903954112437,2,1,1,1,1033518.75056319,132,A
34,2,13/2/95,21,f,141,The spoon licked Will,Non-sensible,edin_semantics,sem_emo_sem_emo,2.05573084787466,2,2,2,1,1033521.54973271,21,A
34,2,13/2/95,21,f,142,Jay painted the portrait,Sensible,edin_semantics,sem_emo_sem_emo,0.903230886207893,2,1,1,1,1033523.19631215,110,A
34,2,13/2/95,21,f,143,Fred served the dessert,Sensible,edin_semantics,sem_emo_sem_emo,1.22053593874443,2,2,2,1,1033525.16038811,145,A
34,2,13/2/95,21,f,144,The garlic crushed Erin,Non-sensible,edin_semantics,sem_emo_sem_emo,2.4322084125597,1,1,1,1,1033528.33594476,6,A
34,2,13/2/95,21,f,145,Hugh dialed the hotline,Sensible,edin_semantics,sem_emo_sem_emo,1.10307418159209,1,1,1,1,1033530.18240726,138,A
34,2,13/2/95,21,f,146,Fred lent the car,Sensible,edin_semantics,sem_emo_sem_emo,1.7735233331332,2,1,1,1,1033532.69924932,94,A
34,2,13/2/95,21,f,147,Ian labeled the box,Sensible,edin_semantics,sem_emo_sem_emo,1.65627325233072,2,1,1,1,1033535.09859466,136,A
34,2,13/2/95,21,f,148,Ben got the radio,Sensible,edin_semantics,sem_emo_sem_emo,1.89107521309052,1,1,1,1,1033537.73314704,88,A
34,2,13/2/95,21,f,149,The room searched Jen,Non-sensible,edin_semantics,sem_emo_sem_emo,1.23243920400273,2,1,1,1,1033539.70898226,10,A
34,2,13/2/95,21,f,150,Jack posted the gift,Sensible,edin_semantics,sem_emo_sem_emo,1.35016202856787,2,2,2,1,1033541.80249412,111,A
34,2,13/2/95,21,f,151,The button pushed Ian,Non-sensible,edin_semantics,sem_emo_sem_emo,1.54259376623668,2,1,1,1,1033547.89472278,101,B
34,2,13/2/95,21,f,152,Ryan painted the picture,Sensible,edin_semantics,sem_emo_sem_emo,2.07553958217613,1,1,1,1,1033550.71740634,35,B
34,2,13/2/95,21,f,153,The bowl dented Ian,Non-sensible,edin_semantics,sem_emo_sem_emo,2.16048336611129,2,2,2,1,1033553.62241691,146,B
34,2,13/2/95,21,f,154,The plants watered Luke,Non-sensible,edin_semantics,sem_emo_sem_emo,1.20759706315584,2,1,1,1,1033555.57481186,129,B
34,2,13/2/95,21,f,155,The salt passed Leo,Non-sensible,edin_semantics,sem_emo_sem_emo,1.41949179721996,2,2,2,1,1033557.73885236,118,B
34,2,13/2/95,21,f,156,The church described Erin,Non-sensible,edin_semantics,sem_emo_sem_emo,1.22050803608727,1,1,1,1,1033559.70295686,117,B
34,2,13/2/95,21,f,157,The pot scrubbed Josh,Non-sensible,edin_semantics,sem_emo_sem_emo,0.926644853316247,2,1,1,1,1033561.37303847,131,B
34,2,13/2/95,21,f,158,Will mashed the potatoes,Sensible,edin_semantics,sem_emo_sem_emo,1.30268302944023,1,2,2,1,1033563.41946999,28,B
34,2,13/2/95,21,f,159,The hair brushed Dan,Non-sensible,edin_semantics,sem_emo_sem_emo,1.12513534456957,1,1,1,1,1033565.28950554,147,B
34,2,13/2/95,21,f,160,Tom knitted the scarf,Sensible,edin_semantics,sem_emo_sem_emo,1.5485675286036,2,2,2,1,1033567.58290688,66,B
34,2,13/2/95,21,f,161,Jon trimmed the bushes,Sensible,edin_semantics,sem_emo_sem_emo,1.10155813011806,2,2,2,1,1033569.42941845,32,B
34,2,13/2/95,21,f,162,Mark washed the dishes,Sensible,edin_semantics,sem_emo_sem_emo,0.972258214373142,1,1,1,1,1033571.14656372,57,B
34,2,13/2/95,21,f,163,Matt drank the juice,Sensible,edin_semantics,sem_emo_sem_emo,0.854814417543821,2,2,2,1,1033572.74607405,60,B
34,2,13/2/95,21,f,164,The radio got Ben,Non-sensible,edin_semantics,sem_emo_sem_emo,0.854148278594948,2,2,2,1,1033574.34559688,88,B
34,2,13/2/95,21,f,165,Ben chewed the toffee,Sensible,edin_semantics,sem_emo_sem_emo,0.842730906791985,2,1,1,1,1033575.9333335,31,B
34,2,13/2/95,21,f,166,The crate lifted Amy,Non-sensible,edin_semantics,sem_emo_sem_emo,0.936985241714865,2,2,2,1,1033577.61519874,144,B
34,2,13/2/95,21,f,167,The bed sold Jay,Non-sensible,edin_semantics,sem_emo_sem_emo,0.878247627988458,2,1,1,1,1033579.23824266,113,B
34,2,13/2/95,21,f,168,Kate built the house,Sensible,edin_semantics,sem_emo_sem_emo,1.30169809318613,1,2,2,1,1033581.28469535,46,B
34,2,13/2/95,21,f,169,The debt paid Zoe,Non-sensible,edin_semantics,sem_emo_sem_emo,1.68949296465144,1,2,2,1,1033583.71922579,134,B
34,2,13/2/95,21,f,170,Ewan wrote the story,Sensible,edin_semantics,sem_emo_sem_emo,1.23089300468564,1,2,2,1,1033585.69510175,74,B
34,2,13/2/95,21,f,171,Lara filed the papers,Sensible,edin_semantics,sem_emo_sem_emo,1.84247400879394,1,2,2,1,1033588.28257057,24,B
34,2,13/2/95,21,f,172,Jon polished the coins,Sensible,edin_semantics,sem_emo_sem_emo,1.39576576801483,1,1,1,1,1033590.42311178,29,B
34,2,13/2/95,21,f,173,The donut iced Joe,Non-sensible,edin_semantics,sem_emo_sem_emo,1.6072541475296,2,1,1,1,1033592.77534696,119,B
34,2,13/2/95,21,f,174,The kettle carried John,Non-sensible,edin_semantics,sem_emo_sem_emo,1.11337704549078,1,1,1,1,1033594.63361811,105,B
34,2,13/2/95,21,f,175,The door kicked Max,Non-sensible,edin_semantics,sem_emo_sem_emo,1.47810176375788,1,2,2,1,1033596.85650558,114,B
34,2,13/2/95,21,f,176,The desk wiped Lucy,Non-sensible,edin_semantics,sem_emo_sem_emo,1.28946320177056,1,1,1,1,1033598.89114096,115,B
34,2,13/2/95,21,f,177,The carrots chopped Fred,Non-sensible,edin_semantics,sem_emo_sem_emo,0.983925428357907,1,2,2,1,1033600.6200426,102,B
34,2,13/2/95,21,f,178,The blanket stroked Ryan,Non-sensible,edin_semantics,sem_emo_sem_emo,0.89024550607428,2,2,2,1,1033602.25486118,116,B
34,2,13/2/95,21,f,179,The gift posted Jack,Non-sensible,edin_semantics,sem_emo_sem_emo,1.77192325261422,1,1,1,1,1033604.77180138,111,B
34,2,13/2/95,21,f,180,The report filed Ian,Non-sensible,edin_semantics,sem_emo_sem_emo,1.16028580151033,2,1,1,1,1033606.67704287,99,B
34,2,13/2/95,21,f,181,The steak ate Mike,Non-sensible,edin_semantics,sem_emo_sem_emo,1.63065304071642,1,2,2,1,1033609.05283858,142,B
34,2,13/2/95,21,f,182,The trousers ironed Eve,Non-sensible,edin_semantics,sem_emo_sem_emo,1.47811940335669,1,2,2,1,1033611.27562021,130,B
34,2,13/2/95,21,f,183,Lily dented the lorry,Sensible,edin_semantics,sem_emo_sem_emo,1.20715767447837,1,1,1,1,1033613.22804243,71,B
34,2,13/2/95,21,f,184,Phil passed the towels,Sensible,edin_semantics,sem_emo_sem_emo,1.71296145441011,1,1,1,1,1033615.68610229,43,B
34,2,13/2/95,21,f,185,The rope pulled Emma,Non-sensible,edin_semantics,sem_emo_sem_emo,1.10196223959792,2,2,2,1,1033617.532585,120,B
34,2,13/2/95,21,f,186,The trophy polished Anna,Non-sensible,edin_semantics,sem_emo_sem_emo,0.901327403029427,2,2,2,1,1033619.17914712,104,B
34,2,13/2/95,21,f,187,Lily got the kettle,Sensible,edin_semantics,sem_emo_sem_emo,0.890411960659549,2,1,1,1,1033620.81397628,13,B
34,2,13/2/95,21,f,188,Jane punched the wall,Sensible,edin_semantics,sem_emo_sem_emo,0.901876157848164,2,2,2,1,1033622.46065162,50,B
34,2,13/2/95,21,f,189,Tim cleaned the floor,Sensible,edin_semantics,sem_emo_sem_emo,0.995963717345148,2,1,1,1,1033624.20115954,5,B
34,2,13/2/95,21,f,190,Jen weighed the flour,Sensible,edin_semantics,sem_emo_sem_emo,1.34859754808713,1,2,2,1,1033626.29466563,64,B
34,2,13/2/95,21,f,191,The rose kissed Hugh,Non-sensible,edin_semantics,sem_emo_sem_emo,1.38405236997642,1,2,2,1,1033628.42343507,98,B
34,2,13/2/95,21,f,192,The rules taught Josh,Non-sensible,edin_semantics,sem_emo_sem_emo,1.95963621186093,1,2,2,1,1033631.12848336,90,B
34,2,13/2/95,21,f,193,The ribbon cut Lucy,Non-sensible,edin_semantics,sem_emo_sem_emo,0.936469200416468,2,1,1,1,1033632.81033962,95,B
34,2,13/2/95,21,f,194,The shoes counted Lucy,Non-sensible,edin_semantics,sem_emo_sem_emo,0.86646655772347,2,1,1,1,1033634.42164737,123,B
34,2,13/2/95,21,f,195,Phil chopped the herbs,Sensible,edin_semantics,sem_emo_sem_emo,1.24212564073969,1,1,1,1,1033636.40925468,27,B
34,2,13/2/95,21,f,196,Tim pulled the handle,Sensible,edin_semantics,sem_emo_sem_emo,1.07758546597324,2,1,1,1,1033638.23223009,73,B
34,2,13/2/95,21,f,197,The wallet carried Leo,Non-sensible,edin_semantics,sem_emo_sem_emo,2.10184581752401,2,2,2,1,1033641.07844981,150,B
34,2,13/2/95,21,f,198,The gum swallowed Owen,Non-sensible,edin_semantics,sem_emo_sem_emo,1.37252723576967,1,1,1,1,1033643.19544524,97,B
34,2,13/2/95,21,f,199,Jon cut the paper,Sensible,edin_semantics,sem_emo_sem_emo,1.25474058743566,2,2,2,1,1033645.19482945,20,B
34,2,13/2/95,21,f,200,The car lent Fred,Non-sensible,edin_semantics,sem_emo_sem_emo,1.40784639224876,1,2,2,1,1033647.34712928,94,B
34,2,13/2/95,21,f,201,The beer drank Jack,Non-sensible,edin_semantics,sem_emo_sem_emo,1.01944247016218,2,1,1,1,1033649.11131416,135,B
34,2,13/2/95,21,f,202,The stairs climbed Ben,Non-sensible,edin_semantics,sem_emo_sem_emo,1.14939409261569,2,1,1,1,1033651.00486214,143,B
34,2,13/2/95,21,f,203,Mary iced the cake,Sensible,edin_semantics,sem_emo_sem_emo,0.878275851369835,2,2,2,1,1033652.62789644,44,B
34,2,13/2/95,21,f,204,The hospital visited Tom,Non-sensible,edin_semantics,sem_emo_sem_emo,1.2788694431074,2,1,1,1,1033654.65084087,91,B
34,2,13/2/95,21,f,205,Mary visited the museum,Sensible,edin_semantics,sem_emo_sem_emo,0.984927683603019,2,2,2,1,1033656.37971076,16,B
34,2,13/2/95,21,f,206,The bath cleaned Jack,Non-sensible,edin_semantics,sem_emo_sem_emo,1.87819759536069,1,2,2,1,1033659.0024609,80,B
34,2,13/2/95,21,f,207,Amy measured the thread,Sensible,edin_semantics,sem_emo_sem_emo,0.96089247870259,2,1,1,1,1033660.70783857,51,B
34,2,13/2/95,21,f,208,Jeff watered the garden,Sensible,edin_semantics,sem_emo_sem_emo,1.54905117687304,1,2,2,1,1033663.00127711,54,B
34,2,13/2/95,21,f,209,The sweets offered Tom,Non-sensible,edin_semantics,sem_emo_sem_emo,1.83139563968871,1,2,2,1,1033665.57695236,84,B
34,2,13/2/95,21,f,210,The party cancelled Phil,Non-sensible,edin_semantics,sem_emo_sem_emo,1.36100947798695,1,2,2,1,1033667.68226358,82,B
34,2,13/2/95,21,f,211,Ian cancelled the plans,Sensible,edin_semantics,sem_emo_sem_emo,1.10240643913858,1,1,1,1,1033669.52871838,7,B
34,2,13/2/95,21,f,212,Joe solved the puzzle,Sensible,edin_semantics,sem_emo_sem_emo,1.12566838401835,1,2,2,1,1033671.39871833,34,B
34,2,13/2/95,21,f,213,The socks knitted Ryan,Non-sensible,edin_semantics,sem_emo_sem_emo,1.06681338616181,2,1,1,1,1033673.20997842,141,B
34,2,13/2/95,21,f,214,The hedge jumped Sara,Non-sensible,edin_semantics,sem_emo_sem_emo,1.12595575058367,1,2,2,1,1033675.07996843,92,B
34,2,13/2/95,21,f,215,Kate served the dish,Sensible,edin_semantics,sem_emo_sem_emo,1.0195989824133,2,2,2,1,1033676.84414786,70,B
34,2,13/2/95,21,f,216,Jake dusted the shelf,Sensible,edin_semantics,sem_emo_sem_emo,1.43146241398063,1,1,1,1,1033679.01995306,47,B
34,2,13/2/95,21,f,217,Matt offered the money,Sensible,edin_semantics,sem_emo_sem_emo,0.961188825545833,2,1,1,1,1033680.72538974,9,B
34,2,13/2/95,21,f,218,Mike paid the bill,Sensible,edin_semantics,sem_emo_sem_emo,2.1244724127464,1,1,1,1,1033683.59525499,59,B
34,2,13/2/95,21,f,219,Phil typed the letter,Sensible,edin_semantics,sem_emo_sem_emo,2.06678580399603,1,1,1,1,1033686.4060295,49,B
34,2,13/2/95,21,f,220,Josh ironed the shirt,Sensible,edin_semantics,sem_emo_sem_emo,2.50226237089373,1,1,1,1,1033689.65205063,55,B
34,2,13/2/95,21,f,221,The monitor punched Erin,Non-sensible,edin_semantics,sem_emo_sem_emo,1.72574125195388,1,1,1,1,1033692.12192973,125,B
34,2,13/2/95,21,f,222,The house dusted Alex,Non-sensible,edin_semantics,sem_emo_sem_emo,1.63108216633555,1,2,2,1,1033694.4977078,122,B
34,2,13/2/95,21,f,223,The invite mailed Ian,Non-sensible,edin_semantics,sem_emo_sem_emo,1.01979077397846,1,1,1,1,1033696.26182084,89,B
34,2,13/2/95,21,f,224,Carl brushed the teeth,Sensible,edin_semantics,sem_emo_sem_emo,1.59581368369982,2,2,2,1,1033698.60230349,72,B
34,2,13/2/95,21,f,225,The box labeled Ian,Non-sensible,edin_semantics,sem_emo_sem_emo,1.66679196199402,2,2,2,1,1033701.01332342,136,B
34,2,13/2/95,21,f,226,Tom dialed the number,Sensible,edin_semantics,sem_emo_sem_emo,1.41977435303852,1,1,1,1,1033703.17738315,63,B
34,2,13/2/95,21,f,227,Liz scrubbed the bowl,Sensible,edin_semantics,sem_emo_sem_emo,1.43122026906349,2,2,2,1,1033705.35320215,56,B
34,2,13/2/95,21,f,228,Beth took the photo,Sensible,edin_semantics,sem_emo_sem_emo,1.18435788946226,1,1,1,1,1033707.28204395,53,B
34,2,13/2/95,21,f,229,Sam tidied the room,Sensible,edin_semantics,sem_emo_sem_emo,1.33732514246367,2,2,2,1,1033709.36373818,2,B
34,2,13/2/95,21,f,230,The curtains measured Rob,Non-sensible,edin_semantics,sem_emo_sem_emo,1.87827392714098,1,2,2,1,1033711.98651622,126,B
34,2,13/2/95,21,f,231,The radio fixed Luke,Non-sensible,edin_semantics,sem_emo_sem_emo,1.16069536318537,2,2,2,1,1033713.89180999,112,B
34,2,13/2/95,21,f,232,Liz sliced the tomato,Sensible,edin_semantics,sem_emo_sem_emo,1.17249599739444,1,1,1,1,1033715.80895987,3,B
34,2,13/2/95,21,f,233,Rob stroked the fur,Sensible,edin_semantics,sem_emo_sem_emo,1.01993926812429,2,1,1,1,1033717.57304693,41,B
34,2,13/2/95,21,f,234,Hugh pulled the lever,Sensible,edin_semantics,sem_emo_sem_emo,1.33719204296358,1,1,1,1,1033719.65479601,45,B
34,2,13/2/95,21,f,235,Ella watched the movie,Sensible,edin_semantics,sem_emo_sem_emo,2.98356205062009,1,1,1,1,1033723.38308732,33,B
34,2,13/2/95,21,f,236,Max lent the bucket,Sensible,edin_semantics,sem_emo_sem_emo,1.59570014837664,1,1,1,1,1033725.72355169,19,B
34,2,13/2/95,21,f,237,Matt pushed the trolley,Sensible,edin_semantics,sem_emo_sem_emo,1.34869825479109,2,2,2,1,1033727.8170257,26,B
34,2,13/2/95,21,f,238,Bill counted the sheets,Sensible,edin_semantics,sem_emo_sem_emo,0.890031584654935,2,2,2,1,1033729.45182471,48,B
34,2,13/2/95,21,f,239,Erin posted the card,Sensible,edin_semantics,sem_emo_sem_emo,0.796142872539349,2,2,2,1,1033730.99260352,36,B
34,2,13/2/95,21,f,240,The turnip mashed Ella,Non-sensible,edin_semantics,sem_emo_sem_emo,1.64291936287191,1,1,1,1,1033733.38009595,103,B
34,2,13/2/95,21,f,241,The problem solved Phil,Non-sensible,edin_semantics,sem_emo_sem_emo,1.16079061746132,2,1,1,1,1033735.28538747,109,B
34,2,13/2/95,21,f,242,The onion sliced Liam,Non-sensible,edin_semantics,sem_emo_sem_emo,1.10213286348153,2,2,2,1,1033737.13186216,78,B
34,2,13/2/95,21,f,243,Leo stored the wine,Sensible,edin_semantics,sem_emo_sem_emo,2.16040927928407,1,2,2,1,1033740.03688652,52,B
34,2,13/2/95,21,f,244,The cream whisked Tom,Non-sensible,edin_semantics,sem_emo_sem_emo,1.86626418237574,1,1,1,1,1033742.64788895,137,B
34,2,13/2/95,21,f,245,Ryan entered the room,Sensible,edin_semantics,sem_emo_sem_emo,1.47809053841047,2,2,2,1,1033744.87075461,58,B
34,2,13/2/95,21,f,246,Tim ate the ham,Sensible,edin_semantics,sem_emo_sem_emo,1.70194113603793,2,1,1,1,1033747.31704751,67,B
34,2,13/2/95,21,f,247,Rob mailed the parcel,Sensible,edin_semantics,sem_emo_sem_emo,2.80704805185087,2,2,2,1,1033750.86893804,14,B
34,2,13/2/95,21,f,248,The pan washed Beth,Non-sensible,edin_semantics,sem_emo_sem_emo,1.11339564737864,2,2,2,1,1033752.72717327,132,B
34,2,13/2/95,21,f,249,Jen searched the room,Sensible,edin_semantics,sem_emo_sem_emo,1.25423384725582,2,2,2,1,1033754.72659822,10,B
34,2,13/2/95,21,f,250,The plate licked Jane,Non-sensible,edin_semantics,sem_emo_sem_emo,2.93611768947449,1,2,2,1,1033758.40784896,96,B
34,2,13/2/95,21,f,251,The poster read Luke,Non-sensible,edin_semantics,sem_emo_sem_emo,1.04274354327936,2,1,1,1,1033760.19550682,79,B
34,2,13/2/95,21,f,252,Jack mixed the fruits,Sensible,edin_semantics,sem_emo_sem_emo,2.00657864357345,1,2,2,1,1033762.94764507,8,B
34,2,13/2/95,21,f,253,Jen fixed the laptop,Sensible,edin_semantics,sem_emo_sem_emo,0.983928635600023,2,1,1,1,1033764.67651656,37,B
34,2,13/2/95,21,f,254,John described the pen,Sensible,edin_semantics,sem_emo_sem_emo,1.17177341133356,2,2,2,1,1033766.59363246,42,B
34,2,13/2/95,21,f,255,Jon jumped the fence,Sensible,edin_semantics,sem_emo_sem_emo,1.51256363128778,1,1,1,1,1033768.85173453,17,B
34,2,13/2/95,21,f,256,The carrots grated Tom,Non-sensible,edin_semantics,sem_emo_sem_emo,1.0662627069978,1,2,2,1,1033770.66296864,140,B
34,2,13/2/95,21,f,257,Liz labeled the jar,Sensible,edin_semantics,sem_emo_sem_emo,1.17236225644592,2,1,1,1,1033772.58005246,61,B
34,2,13/2/95,21,f,258,Dan whisked the eggs,Sensible,edin_semantics,sem_emo_sem_emo,1.27813114179298,2,2,2,1,1033774.60294172,62,B
34,2,13/2/95,21,f,259,Luke climbed the hill,Sensible,edin_semantics,sem_emo_sem_emo,1.30134209210519,1,2,2,1,1033776.64937902,68,B
34,2,13/2/95,21,f,260,Amy hugged the tree,Sensible,edin_semantics,sem_emo_sem_emo,0.995491294423118,2,1,1,1,1033778.39001106,11,B
34,2,13/2/95,21,f,261,The hair trimmed Bill,Non-sensible,edin_semantics,sem_emo_sem_emo,1.34843269712292,1,1,1,1,1033780.48354666,107,B
34,2,13/2/95,21,f,262,Max kissed the mirror,Sensible,edin_semantics,sem_emo_sem_emo,1.03087010513991,2,1,1,1,1033782.25947348,23,B
34,2,13/2/95,21,f,263,Erin crushed the garlic,Sensible,edin_semantics,sem_emo_sem_emo,1.5722614856204,2,2,2,1,1033784.57643087,6,B
34,2,13/2/95,21,f,264,Ryan carried the gun,Sensible,edin_semantics,sem_emo_sem_emo,1.11330231733155,2,1,1,1,1033786.43470202,75,B
34,2,13/2/95,21,f,265,Kate lifted the box,Sensible,edin_semantics,sem_emo_sem_emo,3.10110110172536,1,1,1,1,1033790.28058755,69,B
34,2,13/2/95,21,f,266,Eve taught the lesson,Sensible,edin_semantics,sem_emo_sem_emo,1.79551265446935,2,1,1,1,1033792.8209802,15,B
34,2,13/2/95,21,f,267,The ticket took Tim,Non-sensible,edin_semantics,sem_emo_sem_emo,1.16083359415643,2,2,2,1,1033794.72629321,128,B
34,2,13/2/95,21,f,268,The sugar weighed Liz,Non-sensible,edin_semantics,sem_emo_sem_emo,1.31280532712117,2,1,1,1,1033796.78451928,139,B
34,2,13/2/95,21,f,269,The lemon squeezed Jay,Non-sensible,edin_semantics,sem_emo_sem_emo,1.06588457606267,2,2,2,1,1033798.59572164,76,B
34,2,13/2/95,21,f,270,The message typed Eve,Non-sensible,edin_semantics,sem_emo_sem_emo,0.71362791408319,2,2,2,1,1033800.05413269,124,B
34,2,13/2/95,21,f,271,Leah sucked the lolly,Sensible,edin_semantics,sem_emo_sem_emo,0.678034219774418,2,2,2,1,1033801.47719573,12,B
34,2,13/2/95,21,f,272,Andy grated the cheese,Sensible,edin_semantics,sem_emo_sem_emo,1.06619695900008,1,1,1,1,1033803.28842054,65,B
34,2,13/2/95,21,f,273,The opera watched Adam,Non-sensible,edin_semantics,sem_emo_sem_emo,0.866402092622593,2,2,2,1,1033804.89974047,108,B
34,2,13/2/95,21,f,274,Beth wiped the table,Sensible,edin_semantics,sem_emo_sem_emo,0.772435124381445,2,2,2,1,1033806.41688529,40,B
34,2,13/2/95,21,f,275,The internet searched Max,Non-sensible,edin_semantics,sem_emo_sem_emo,1.18372221908066,2,1,1,1,1033808.34573896,85,B
34,2,13/2/95,21,f,276,The dessert served Fred,Non-sensible,edin_semantics,sem_emo_sem_emo,1.100250868476,1,1,1,1,1033810.19222231,145,B
34,2,13/2/95,21,f,277,The rope pulled Andy,Non-sensible,edin_semantics,sem_emo_sem_emo,1.91356774664018,1,2,2,1,1033812.85026626,148,B
34,2,13/2/95,21,f,278,Sean read the book,Sensible,edin_semantics,sem_emo_sem_emo,1.30190848652273,1,2,2,1,1033814.89669875,4,B
34,2,13/2/95,21,f,279,The report wrote Alex,Non-sensible,edin_semantics,sem_emo_sem_emo,1.07811946747825,2,1,1,1,1033816.71967544,149,B
34,2,13/2/95,21,f,280,Phil sniffed the milk,Sensible,edin_semantics,sem_emo_sem_emo,1.00792727828957,2,2,2,1,1033818.47208053,18,B
34,2,13/2/95,21,f,281,The candy sucked Sam,Non-sensible,edin_semantics,sem_emo_sem_emo,0.737437331001274,2,1,1,1,1033819.95402454,87,B
34,2,13/2/95,21,f,282,Matt kicked the bike,Sensible,edin_semantics,sem_emo_sem_emo,1.05468978511635,2,1,1,1,1033821.75348047,39,B
34,2,13/2/95,21,f,283,The rice stored Fred,Non-sensible,edin_semantics,sem_emo_sem_emo,1.44263603724539,2,1,1,1,1033823.94103211,127,B
34,2,13/2/95,21,f,284,Josh squeezed the ball,Sensible,edin_semantics,sem_emo_sem_emo,1.01940943580121,2,1,1,1,1033825.70534014,1,B
34,2,13/2/95,21,f,285,The ice crushed Josh,Non-sensible,edin_semantics,sem_emo_sem_emo,1.44294104364235,1,1,1,1,1033827.89281577,81,B
34,2,13/2/95,21,f,286,The perfume sniffed Tim,Non-sensible,edin_semantics,sem_emo_sem_emo,1.29003472765908,2,1,1,1,1033829.92747296,93,B
34,2,13/2/95,21,f,287,The hotline dialed Hugh,Non-sensible,edin_semantics,sem_emo_sem_emo,2.5365330883069,1,2,2,1,1033833.20884371,138,B
34,2,13/2/95,21,f,288,Dan carried the folder,Sensible,edin_semantics,sem_emo_sem_emo,0.984378608060069,2,2,2,1,1033834.93775145,30,B
34,2,13/2/95,21,f,289,The garage tidied Erin,Non-sensible,edin_semantics,sem_emo_sem_emo,1.4544318607077,1,1,1,1,1033837.13705817,77,B
34,2,13/2/95,21,f,290,The pillow hugged Kate,Non-sensible,edin_semantics,sem_emo_sem_emo,0.94860210234765,1,2,2,1,1033838.83066439,86,B
34,2,13/2/95,21,f,291,The shed built Rose,Non-sensible,edin_semantics,sem_emo_sem_emo,1.60788500716444,1,1,1,1,1033841.18292138,121,B
34,2,13/2/95,21,f,292,Luke swallowed the pill,Sensible,edin_semantics,sem_emo_sem_emo,2.23100910591893,1,2,2,1,1033844.15851542,22,B
34,2,13/2/95,21,f,293,Carl sold the sofa,Sensible,edin_semantics,sem_emo_sem_emo,2.11293412884697,1,2,2,1,1033847.01640171,38,B
34,2,13/2/95,21,f,294,Will licked the spoon,Sensible,edin_semantics,sem_emo_sem_emo,1.76050106994808,2,1,1,1,1033849.52159548,21,B
34,2,13/2/95,21,f,295,The portrait painted Jay,Non-sensible,edin_semantics,sem_emo_sem_emo,1.01946780725848,2,2,2,1,1033851.28579158,110,B
34,2,13/2/95,21,f,296,The fat chewed Adam,Non-sensible,edin_semantics,sem_emo_sem_emo,0.960321273305453,2,2,2,1,1033852.99116732,106,B
34,2,13/2/95,21,f,297,Joe wore the jumper,Sensible,edin_semantics,sem_emo_sem_emo,0.842822953942232,2,1,1,1,1033854.57886386,25,B
34,2,13/2/95,21,f,298,The nuts mixed Liam,Non-sensible,edin_semantics,sem_emo_sem_emo,1.32526825170498,1,1,1,1,1033856.64884245,83,B
34,2,13/2/95,21,f,299,The dress wore Kate,Non-sensible,edin_semantics,sem_emo_sem_emo,0.972556485445239,2,2,2,1,1033858.36599766,100,B
34,2,13/2/95,21,f,300,The office entered Joe,Non-sensible,edin_semantics,sem_emo_sem_emo,0.961016597924754,2,1,1,1,1033860.07138816,133,B
