subject_column,AssignedList_column,subject_dob_column,subject_age_column,subject_gender_column,trialnum_column,Stim_column,Type_column,Experiment_column,OrderGroup_column,ReactionTime_column,StimSide_column,StimPosition_column,Response_column,Valid_column,TrialEndSecs_column,PairID_column,List_column
35,3,14/1/96,20,f,1,Joe wore the jumper,Sensible,edin_semantics,emo_sem_emo_sem,1.29484459117521,1,1,1,1,1037431.86165028,25,B
35,3,14/1/96,20,f,2,Jen weighed the flour,Sensible,edin_semantics,emo_sem_emo_sem,1.14730234572198,2,2,2,1,1037433.7551819,64,B
35,3,14/1/96,20,f,3,The box labeled Ian,Non-sensible,edin_semantics,emo_sem_emo_sem,1.22995232790709,1,2,2,1,1037435.73108351,136,B
35,3,14/1/96,20,f,4,The radio fixed Luke,Non-sensible,edin_semantics,emo_sem_emo_sem,1.04250043607317,1,2,2,1,1037437.51877409,112,B
35,3,14/1/96,20,f,5,Jen searched the room,Sensible,edin_semantics,emo_sem_emo_sem,1.02111920330208,2,2,2,1,1037439.28294934,10,B
35,3,14/1/96,20,f,6,Jeff watered the garden,Sensible,edin_semantics,emo_sem_emo_sem,1.0325862870086,2,2,2,1,1037441.05894705,54,B
35,3,14/1/96,20,f,7,Phil chopped the herbs,Sensible,edin_semantics,emo_sem_emo_sem,1.22075563319959,1,1,1,1,1037443.02301852,27,B
35,3,14/1/96,20,f,8,The invite mailed Ian,Non-sensible,edin_semantics,emo_sem_emo_sem,0.938838371657766,2,1,1,1,1037444.70482891,89,B
35,3,14/1/96,20,f,9,Luke swallowed the pill,Sensible,edin_semantics,emo_sem_emo_sem,1.46760197670665,1,2,2,1,1037446.91594237,22,B
35,3,14/1/96,20,f,10,The dress wore Kate,Non-sensible,edin_semantics,emo_sem_emo_sem,1.17333404324017,1,2,2,1,1037448.83299636,100,B
35,3,14/1/96,20,f,11,Will licked the spoon,Sensible,edin_semantics,emo_sem_emo_sem,0.9971000343794,1,1,1,1,1037450.57365663,21,B
35,3,14/1/96,20,f,12,Carl brushed the teeth,Sensible,edin_semantics,emo_sem_emo_sem,1.38527816825081,1,2,2,1,1037452.70243825,72,B
35,3,14/1/96,20,f,13,Dan carried the folder,Sensible,edin_semantics,emo_sem_emo_sem,1.30246397654992,1,2,2,1,1037454.74886465,30,B
35,3,14/1/96,20,f,14,Liz scrubbed the bowl,Sensible,edin_semantics,emo_sem_emo_sem,1.14966542308684,2,2,2,1,1037456.64245271,56,B
35,3,14/1/96,20,f,15,Tom knitted the scarf,Sensible,edin_semantics,emo_sem_emo_sem,1.26751397072803,2,2,2,1,1037458.653601,66,B
35,3,14/1/96,20,f,16,Beth took the photo,Sensible,edin_semantics,emo_sem_emo_sem,1.45525868132245,1,1,1,1,1037460.85289939,53,B
35,3,14/1/96,20,f,17,The trousers ironed Eve,Non-sensible,edin_semantics,emo_sem_emo_sem,0.750292498152703,2,2,2,1,1037462.34661485,130,B
35,3,14/1/96,20,f,18,Bill counted the sheets,Sensible,edin_semantics,emo_sem_emo_sem,1.46709170844406,1,2,2,1,1037464.55767667,48,B
35,3,14/1/96,20,f,19,Lara filed the papers,Sensible,edin_semantics,emo_sem_emo_sem,2.4901509572519,1,2,2,1,1037467.79203507,24,B
35,3,14/1/96,20,f,20,Matt kicked the bike,Sensible,edin_semantics,emo_sem_emo_sem,1.6554438660387,1,1,1,1,1037470.19127489,39,B
35,3,14/1/96,20,f,21,Jen fixed the laptop,Sensible,edin_semantics,emo_sem_emo_sem,1.20856532198377,1,1,2,0,1037472.1436551,37,B
35,3,14/1/96,20,f,22,The gift posted Jack,Non-sensible,edin_semantics,emo_sem_emo_sem,1.03179025568534,2,1,1,1,1037473.91958417,111,B
35,3,14/1/96,20,f,23,The sugar weighed Liz,Non-sensible,edin_semantics,emo_sem_emo_sem,1.34995484235696,2,1,1,1,1037476.01305369,139,B
35,3,14/1/96,20,f,24,The debt paid Zoe,Non-sensible,edin_semantics,emo_sem_emo_sem,1.8204734622268,2,2,1,0,1037478.57700977,134,B
35,3,14/1/96,20,f,25,The cream whisked Tom,Non-sensible,edin_semantics,emo_sem_emo_sem,2.02000148815569,1,1,1,1,1037481.34090376,137,B
35,3,14/1/96,20,f,26,The socks knitted Ryan,Non-sensible,edin_semantics,emo_sem_emo_sem,2.65514110471122,1,1,1,1,1037484.73990496,141,B
35,3,14/1/96,20,f,27,The fat chewed Adam,Non-sensible,edin_semantics,emo_sem_emo_sem,1.93698363797739,2,2,1,0,1037487.421377,106,B
35,3,14/1/96,20,f,28,The crate lifted Amy,Non-sensible,edin_semantics,emo_sem_emo_sem,1.14883667824324,2,2,1,0,1037489.31494422,144,B
35,3,14/1/96,20,f,29,Lily got the kettle,Sensible,edin_semantics,emo_sem_emo_sem,1.05561699159443,2,1,1,1,1037491.11438219,13,B
35,3,14/1/96,20,f,30,Tim ate the ham,Sensible,edin_semantics,emo_sem_emo_sem,1.46753975667525,2,1,1,1,1037493.32549596,67,B
35,3,14/1/96,20,f,31,The nuts mixed Liam,Non-sensible,edin_semantics,emo_sem_emo_sem,1.06748177018017,1,1,1,1,1037495.13670057,83,B
35,3,14/1/96,20,f,32,Leah sucked the lolly,Sensible,edin_semantics,emo_sem_emo_sem,1.30232927342877,2,2,2,1,1037497.18317058,12,B
35,3,14/1/96,20,f,33,Amy hugged the tree,Sensible,edin_semantics,emo_sem_emo_sem,0.973820449667983,1,1,1,1,1037498.90039218,11,B
35,3,14/1/96,20,f,34,The plate licked Jane,Non-sensible,edin_semantics,emo_sem_emo_sem,1.26739915215876,2,2,1,0,1037500.9114404,96,B
35,3,14/1/96,20,f,35,Kate built the house,Sensible,edin_semantics,emo_sem_emo_sem,0.962180817732587,2,2,1,0,1037502.61688927,46,B
35,3,14/1/96,20,f,36,Ian cancelled the plans,Sensible,edin_semantics,emo_sem_emo_sem,1.29041766945738,1,1,1,1,1037504.65151503,7,B
35,3,14/1/96,20,f,37,The party cancelled Phil,Non-sensible,edin_semantics,emo_sem_emo_sem,1.14990115363617,2,2,1,0,1037506.54508834,82,B
35,3,14/1/96,20,f,38,The beer drank Jack,Non-sensible,edin_semantics,emo_sem_emo_sem,1.04412072221749,2,1,1,1,1037508.33272343,135,B
35,3,14/1/96,20,f,39,Erin posted the card,Sensible,edin_semantics,emo_sem_emo_sem,1.25594714249019,1,2,2,1,1037510.33216473,36,B
35,3,14/1/96,20,f,40,Jake dusted the shelf,Sensible,edin_semantics,emo_sem_emo_sem,1.02048962656409,1,1,1,1,1037512.09630567,47,B
35,3,14/1/96,20,f,41,The stairs climbed Ben,Non-sensible,edin_semantics,emo_sem_emo_sem,0.949476710520685,2,1,1,1,1037513.78995743,143,B
35,3,14/1/96,20,f,42,The rice stored Fred,Non-sensible,edin_semantics,emo_sem_emo_sem,2.27909972134512,1,1,1,1,1037516.8125449,127,B
35,3,14/1/96,20,f,43,Luke climbed the hill,Sensible,edin_semantics,emo_sem_emo_sem,1.30303774774075,2,2,1,0,1037518.85897546,68,B
35,3,14/1/96,20,f,44,The hair trimmed Bill,Non-sensible,edin_semantics,emo_sem_emo_sem,0.831994747859426,2,1,1,1,1037520.43499099,107,B
35,3,14/1/96,20,f,45,Amy measured the thread,Sensible,edin_semantics,emo_sem_emo_sem,1.39685878751334,1,1,1,1,1037522.57551104,51,B
35,3,14/1/96,20,f,46,Ryan carried the gun,Sensible,edin_semantics,emo_sem_emo_sem,0.773148088715971,2,1,1,1,1037524.09272449,75,B
35,3,14/1/96,20,f,47,The door kicked Max,Non-sensible,edin_semantics,emo_sem_emo_sem,1.79682633047923,1,2,2,1,1037526.63311586,114,B
35,3,14/1/96,20,f,48,The internet searched Max,Non-sensible,edin_semantics,emo_sem_emo_sem,0.891017162473872,2,1,1,1,1037528.26791423,85,B
35,3,14/1/96,20,f,49,Max lent the bucket,Sensible,edin_semantics,emo_sem_emo_sem,0.890730757964775,2,1,1,1,1037529.9027017,19,B
35,3,14/1/96,20,f,50,Joe solved the puzzle,Sensible,edin_semantics,emo_sem_emo_sem,1.46746759430971,2,2,1,0,1037532.11383407,34,B
35,3,14/1/96,20,f,51,The radio got Ben,Non-sensible,edin_semantics,emo_sem_emo_sem,2.67903102282435,2,2,1,0,1037535.53631307,88,B
35,3,14/1/96,20,f,52,Matt pushed the trolley,Sensible,edin_semantics,emo_sem_emo_sem,1.51421631011181,1,2,2,1,1037537.79444305,26,B
35,3,14/1/96,20,f,53,The blanket stroked Ryan,Non-sensible,edin_semantics,emo_sem_emo_sem,1.50296154420357,1,2,2,1,1037540.04087598,116,B
35,3,14/1/96,20,f,54,The hospital visited Tom,Non-sensible,edin_semantics,emo_sem_emo_sem,1.37300414883066,1,1,1,1,1037542.15785088,91,B
35,3,14/1/96,20,f,55,The rope pulled Emma,Non-sensible,edin_semantics,emo_sem_emo_sem,1.2676666341722,1,2,2,1,1037544.16900558,120,B
35,3,14/1/96,20,f,56,Ewan wrote the story,Sensible,edin_semantics,emo_sem_emo_sem,1.23216787341516,1,2,2,1,1037546.14489308,74,B
35,3,14/1/96,20,f,57,Tom dialed the number,Sensible,edin_semantics,emo_sem_emo_sem,1.34966041985899,2,1,1,1,1037548.23839565,63,B
35,3,14/1/96,20,f,58,Matt offered the money,Sensible,edin_semantics,emo_sem_emo_sem,1.36200371524319,1,1,1,1,1037550.34369179,9,B
35,3,14/1/96,20,f,59,Matt drank the juice,Sensible,edin_semantics,emo_sem_emo_sem,1.0911875939928,1,2,2,1,1037552.17838445,60,B
35,3,14/1/96,20,f,60,The opera watched Adam,Non-sensible,edin_semantics,emo_sem_emo_sem,2.29084775736555,1,2,2,1,1037555.21275651,108,B
35,3,14/1/96,20,f,61,Tim cleaned the floor,Sensible,edin_semantics,emo_sem_emo_sem,2.53749076323584,1,1,1,1,1037558.49412342,5,B
35,3,14/1/96,20,f,62,Sean read the book,Sensible,edin_semantics,emo_sem_emo_sem,2.40845351840835,2,2,1,0,1037561.64614422,4,B
35,3,14/1/96,20,f,63,Phil passed the towels,Sensible,edin_semantics,emo_sem_emo_sem,1.09113788208924,2,1,1,1,1037563.48094624,43,B
35,3,14/1/96,20,f,64,Jon polished the coins,Sensible,edin_semantics,emo_sem_emo_sem,0.843782232492231,2,1,1,1,1037565.06861039,29,B
35,3,14/1/96,20,f,65,Liz labeled the jar,Sensible,edin_semantics,emo_sem_emo_sem,2.77252107788809,1,1,1,1,1037568.58521415,61,B
35,3,14/1/96,20,f,66,The pan washed Beth,Non-sensible,edin_semantics,emo_sem_emo_sem,1.12594612897374,1,2,2,1,1037570.45521859,132,B
35,3,14/1/96,20,f,67,The message typed Eve,Non-sensible,edin_semantics,emo_sem_emo_sem,1.33822925703134,2,2,1,0,1037572.53698466,124,B
35,3,14/1/96,20,f,68,The shed built Rose,Non-sensible,edin_semantics,emo_sem_emo_sem,1.37382680003066,1,1,1,1,1037574.65395668,121,B
35,3,14/1/96,20,f,69,Mary iced the cake,Sensible,edin_semantics,emo_sem_emo_sem,0.996551279560663,2,2,1,0,1037576.39463747,44,B
35,3,14/1/96,20,f,70,The kettle carried John,Non-sensible,edin_semantics,emo_sem_emo_sem,0.762014876352623,1,1,1,1,1037577.90002559,105,B
35,3,14/1/96,20,f,71,The lemon squeezed Jay,Non-sensible,edin_semantics,emo_sem_emo_sem,1.56173828593455,1,2,2,1,1037580.20524297,76,B
35,3,14/1/96,20,f,72,Mike paid the bill,Sensible,edin_semantics,emo_sem_emo_sem,0.938124124426395,2,1,1,1,1037581.88705689,59,B
35,3,14/1/96,20,f,73,The rope pulled Andy,Non-sensible,edin_semantics,emo_sem_emo_sem,1.57354597619269,2,2,1,0,1037584.20402647,148,B
35,3,14/1/96,20,f,74,Mark washed the dishes,Sensible,edin_semantics,emo_sem_emo_sem,1.16180024947971,2,1,1,1,1037586.10931831,57,B
35,3,14/1/96,20,f,75,Sam tidied the room,Sensible,edin_semantics,emo_sem_emo_sem,1.71452850056812,1,2,2,1,1037588.56741827,2,B
35,3,14/1/96,20,f,76,The pillow hugged Kate,Non-sensible,edin_semantics,emo_sem_emo_sem,1.85548055660911,1,2,2,1,1037591.16663641,86,B
35,3,14/1/96,20,f,77,Andy grated the cheese,Sensible,edin_semantics,emo_sem_emo_sem,0.690850579645485,2,1,2,0,1037592.60149302,65,B
35,3,14/1/96,20,f,78,Jon jumped the fence,Sensible,edin_semantics,emo_sem_emo_sem,1.32542989531066,1,1,1,1,1037594.67146327,17,B
35,3,14/1/96,20,f,79,The garage tidied Erin,Non-sensible,edin_semantics,emo_sem_emo_sem,1.23225414764602,2,1,1,1,1037596.64739985,77,B
35,3,14/1/96,20,f,80,The problem solved Phil,Non-sensible,edin_semantics,emo_sem_emo_sem,2.60779745015316,1,1,1,1,1037599.99928992,109,B
35,3,14/1/96,20,f,81,The salt passed Leo,Non-sensible,edin_semantics,emo_sem_emo_sem,1.40774793073069,1,2,2,1,1037602.15154485,118,B
35,3,14/1/96,20,f,82,Dan whisked the eggs,Sensible,edin_semantics,emo_sem_emo_sem,1.19617648422718,2,2,1,0,1037604.09213982,62,B
35,3,14/1/96,20,f,83,The hedge jumped Sara,Non-sensible,edin_semantics,emo_sem_emo_sem,0.890357117168605,2,2,1,0,1037605.72694813,92,B
35,3,14/1/96,20,f,84,Jane punched the wall,Sensible,edin_semantics,emo_sem_emo_sem,0.890353268594481,2,2,1,0,1037607.36173591,50,B
35,3,14/1/96,20,f,85,The pot scrubbed Josh,Non-sensible,edin_semantics,emo_sem_emo_sem,1.58481132588349,1,1,1,1,1037609.69046411,131,B
35,3,14/1/96,20,f,86,Will mashed the potatoes,Sensible,edin_semantics,emo_sem_emo_sem,1.07915668154601,1,2,2,1,1037611.51344016,28,B
35,3,14/1/96,20,f,87,Jon trimmed the bushes,Sensible,edin_semantics,emo_sem_emo_sem,1.05585208057892,1,2,2,1,1037613.31292688,32,B
35,3,14/1/96,20,f,88,Jon cut the paper,Sensible,edin_semantics,emo_sem_emo_sem,1.07958612788934,1,2,2,1,1037615.13587343,20,B
35,3,14/1/96,20,f,89,The shoes counted Lucy,Non-sensible,edin_semantics,emo_sem_emo_sem,1.45496008940972,1,1,1,1,1037617.33522826,123,B
35,3,14/1/96,20,f,90,The office entered Joe,Non-sensible,edin_semantics,emo_sem_emo_sem,0.961886395234615,2,1,1,1,1037619.04062389,133,B
35,3,14/1/96,20,f,91,The donut iced Joe,Non-sensible,edin_semantics,emo_sem_emo_sem,1.27946277835872,1,1,1,1,1037621.06351861,119,B
35,3,14/1/96,20,f,92,Max kissed the mirror,Sensible,edin_semantics,emo_sem_emo_sem,1.87895000854041,1,1,1,1,1037623.68628735,23,B
35,3,14/1/96,20,f,93,The plants watered Luke,Non-sensible,edin_semantics,emo_sem_emo_sem,1.19676019763574,2,1,1,1,1037625.62687526,129,B
35,3,14/1/96,20,f,94,The ticket took Tim,Non-sensible,edin_semantics,emo_sem_emo_sem,1.57349690573756,2,2,1,0,1037627.94378198,128,B
35,3,14/1/96,20,f,95,The button pushed Ian,Non-sensible,edin_semantics,emo_sem_emo_sem,1.45596523128916,2,1,1,1,1037630.14313296,101,B
35,3,14/1/96,20,f,96,The desk wiped Lucy,Non-sensible,edin_semantics,emo_sem_emo_sem,1.13782437797636,2,1,1,1,1037632.02492713,115,B
35,3,14/1/96,20,f,97,Beth wiped the table,Sensible,edin_semantics,emo_sem_emo_sem,1.59689804387745,2,2,1,0,1037634.36537995,40,B
35,3,14/1/96,20,f,98,The church described Erin,Non-sensible,edin_semantics,emo_sem_emo_sem,1.18523827055469,2,1,1,1,1037636.29425478,117,B
35,3,14/1/96,20,f,99,John described the pen,Sensible,edin_semantics,emo_sem_emo_sem,1.77328599907923,1,2,2,1,1037638.8111055,42,B
35,3,14/1/96,20,f,100,The rules taught Josh,Non-sensible,edin_semantics,emo_sem_emo_sem,1.2560693374835,2,2,1,0,1037640.81047881,90,B
35,3,14/1/96,20,f,101,The portrait painted Jay,Non-sensible,edin_semantics,emo_sem_emo_sem,1.11434947373345,1,2,2,1,1037642.66876632,110,B
35,3,14/1/96,20,f,102,Eve taught the lesson,Sensible,edin_semantics,emo_sem_emo_sem,2.59620271925814,1,1,1,1,1037646.00893691,15,B
35,3,14/1/96,20,f,103,The ribbon cut Lucy,Non-sensible,edin_semantics,emo_sem_emo_sem,2.30267918074969,1,1,1,1,1037649.0550955,95,B
35,3,14/1/96,20,f,104,Phil sniffed the milk,Sensible,edin_semantics,emo_sem_emo_sem,0.938105201814324,2,2,1,0,1037650.73696042,18,B
35,3,14/1/96,20,f,105,Josh squeezed the ball,Sensible,edin_semantics,emo_sem_emo_sem,1.455387932132,1,1,1,1,1037652.9362572,1,B
35,3,14/1/96,20,f,106,The steak ate Mike,Non-sensible,edin_semantics,emo_sem_emo_sem,1.02023561496753,2,2,1,0,1037654.70043054,142,B
35,3,14/1/96,20,f,107,The curtains measured Rob,Non-sensible,edin_semantics,emo_sem_emo_sem,1.38468675757758,1,2,2,1,1037656.82923301,126,B
35,3,14/1/96,20,f,108,The poster read Luke,Non-sensible,edin_semantics,emo_sem_emo_sem,1.34933039720636,1,1,1,1,1037658.9227019,79,B
35,3,14/1/96,20,f,109,The ice crushed Josh,Non-sensible,edin_semantics,emo_sem_emo_sem,1.34947440132964,1,1,1,1,1037661.01619965,81,B
35,3,14/1/96,20,f,110,Rob mailed the parcel,Sensible,edin_semantics,emo_sem_emo_sem,1.57323198963422,1,2,2,1,1037663.33342581,14,B
35,3,14/1/96,20,f,111,The sweets offered Tom,Non-sensible,edin_semantics,emo_sem_emo_sem,1.31261770485435,1,2,2,1,1037665.39136964,84,B
35,3,14/1/96,20,f,112,The bed sold Jay,Non-sensible,edin_semantics,emo_sem_emo_sem,2.37217604543548,1,1,1,1,1037668.5080437,113,B
35,3,14/1/96,20,f,113,Mary visited the museum,Sensible,edin_semantics,emo_sem_emo_sem,0.961060536908917,1,2,2,1,1037670.21343805,16,B
35,3,14/1/96,20,f,114,The report filed Ian,Non-sensible,edin_semantics,emo_sem_emo_sem,1.1957374161575,2,1,1,1,1037672.1540096,99,B
35,3,14/1/96,20,f,115,The candy sucked Sam,Non-sensible,edin_semantics,emo_sem_emo_sem,1.06664725230075,2,1,1,1,1037673.9652312,87,B
35,3,14/1/96,20,f,116,The perfume sniffed Tim,Non-sensible,edin_semantics,emo_sem_emo_sem,1.53675598977134,1,1,1,1,1037676.246923,93,B
35,3,14/1/96,20,f,117,The rose kissed Hugh,Non-sensible,edin_semantics,emo_sem_emo_sem,1.47812774218619,1,2,2,1,1037678.46979988,98,B
35,3,14/1/96,20,f,118,Leo stored the wine,Sensible,edin_semantics,emo_sem_emo_sem,1.01958326704334,1,2,2,1,1037680.23394852,52,B
35,3,14/1/96,20,f,119,The monitor punched Erin,Non-sensible,edin_semantics,emo_sem_emo_sem,0.925660237669945,2,1,1,1,1037681.90401345,125,B
35,3,14/1/96,20,f,120,The carrots grated Tom,Non-sensible,edin_semantics,emo_sem_emo_sem,1.10220117715653,1,2,2,1,1037683.75053657,140,B
35,3,14/1/96,20,f,121,The hotline dialed Hugh,Non-sensible,edin_semantics,emo_sem_emo_sem,1.54775834770408,2,2,1,0,1037686.04401168,138,B
35,3,14/1/96,20,f,122,Ben chewed the toffee,Sensible,edin_semantics,emo_sem_emo_sem,1.00910913781263,1,1,1,1,1037687.79641677,31,B
35,3,14/1/96,20,f,123,The hair brushed Dan,Non-sensible,edin_semantics,emo_sem_emo_sem,1.23247961502057,1,1,1,1,1037689.77225295,147,B
35,3,14/1/96,20,f,124,The onion sliced Liam,Non-sensible,edin_semantics,emo_sem_emo_sem,1.06709241401404,2,2,1,0,1037691.58347071,78,B
35,3,14/1/96,20,f,125,The dessert served Fred,Non-sensible,edin_semantics,emo_sem_emo_sem,0.736402362119406,2,1,1,1,1037693.06536116,145,B
35,3,14/1/96,20,f,126,Ryan entered the room,Sensible,edin_semantics,emo_sem_emo_sem,0.925960433203727,1,2,2,1,1037694.73545976,58,B
35,3,14/1/96,20,f,127,Jack mixed the fruits,Sensible,edin_semantics,emo_sem_emo_sem,0.949581907130778,1,2,2,1,1037696.42905155,8,B
35,3,14/1/96,20,f,128,Carl sold the sofa,Sensible,edin_semantics,emo_sem_emo_sem,1.07867431617342,2,2,1,0,1037698.25202536,38,B
35,3,14/1/96,20,f,129,Ella watched the movie,Sensible,edin_semantics,emo_sem_emo_sem,1.03166838153265,2,1,1,1,1037700.0279897,33,B
35,3,14/1/96,20,f,130,The gum swallowed Owen,Non-sensible,edin_semantics,emo_sem_emo_sem,0.99648649385199,1,1,1,1,1037701.76865382,97,B
35,3,14/1/96,20,f,131,Phil typed the letter,Sensible,edin_semantics,emo_sem_emo_sem,1.11427282122895,1,1,1,1,1037703.62688777,49,B
35,3,14/1/96,20,f,132,Lily dented the lorry,Sensible,edin_semantics,emo_sem_emo_sem,0.902659680927172,2,1,1,1,1037705.27345791,71,B
35,3,14/1/96,20,f,133,Erin crushed the garlic,Sensible,edin_semantics,emo_sem_emo_sem,1.07879394537304,1,2,2,1,1037707.09643781,6,B
35,3,14/1/96,20,f,134,Kate served the dish,Sensible,edin_semantics,emo_sem_emo_sem,1.2193062917795,1,2,2,1,1037709.06054071,70,B
35,3,14/1/96,20,f,135,The trophy polished Anna,Non-sensible,edin_semantics,emo_sem_emo_sem,0.831162475049496,1,2,2,1,1037710.63667235,104,B
35,3,14/1/96,20,f,136,The turnip mashed Ella,Non-sensible,edin_semantics,emo_sem_emo_sem,1.43117151933257,1,1,1,1,1037712.81236177,103,B
35,3,14/1/96,20,f,137,The wallet carried Leo,Non-sensible,edin_semantics,emo_sem_emo_sem,1.13706202246249,2,2,1,0,1037714.69424349,150,B
35,3,14/1/96,20,f,138,Ryan painted the picture,Sensible,edin_semantics,emo_sem_emo_sem,1.00743978121318,2,1,1,1,1037716.44656712,35,B
35,3,14/1/96,20,f,139,Kate lifted the box,Sensible,edin_semantics,emo_sem_emo_sem,1.39607013284694,1,1,1,1,1037718.58708524,69,B
35,3,14/1/96,20,f,140,The bowl dented Ian,Non-sensible,edin_semantics,emo_sem_emo_sem,1.53679383487906,1,2,2,1,1037720.86874978,146,B
35,3,14/1/96,20,f,141,The carrots chopped Fred,Non-sensible,edin_semantics,emo_sem_emo_sem,2.25461582664866,1,2,2,1,1037723.86787453,102,B
35,3,14/1/96,20,f,142,The car lent Fred,Non-sensible,edin_semantics,emo_sem_emo_sem,0.996151660336182,1,2,2,1,1037725.6085226,94,B
35,3,14/1/96,20,f,143,Josh ironed the shirt,Sensible,edin_semantics,emo_sem_emo_sem,0.925095767481253,2,1,1,1,1037727.27860741,55,B
35,3,14/1/96,20,f,144,Tim pulled the handle,Sensible,edin_semantics,emo_sem_emo_sem,1.54956946324091,1,1,1,1,1037729.57202223,73,B
35,3,14/1/96,20,f,145,The report wrote Alex,Non-sensible,edin_semantics,emo_sem_emo_sem,0.973386513302103,1,1,1,1,1037731.28918385,149,B
35,3,14/1/96,20,f,146,Hugh pulled the lever,Sensible,edin_semantics,emo_sem_emo_sem,1.04385933396406,1,1,1,1,1037733.07686063,45,B
35,3,14/1/96,20,f,147,Liz sliced the tomato,Sensible,edin_semantics,emo_sem_emo_sem,1.24360256420914,1,1,1,1,1037735.06450259,3,B
35,3,14/1/96,20,f,148,The house dusted Alex,Non-sensible,edin_semantics,emo_sem_emo_sem,1.16010427311994,1,2,2,1,1037736.96979026,122,B
35,3,14/1/96,20,f,149,The bath cleaned Jack,Non-sensible,edin_semantics,emo_sem_emo_sem,1.1963304305682,1,2,2,1,1037738.91037881,80,B
35,3,14/1/96,20,f,150,Rob stroked the fur,Sensible,edin_semantics,emo_sem_emo_sem,1.07818489475176,2,1,1,1,1037740.73335935,41,B
35,3,14/1/96,20,f,24,Luke fixed the radio,Sensible,edin_semantics,emo_sem_emo_sem,1.91793918353505,1,1,1,1,1037746.10819835,112,A
35,3,14/1/96,20,f,25,Sam sucked the candy,Sensible,edin_semantics,emo_sem_emo_sem,0.981798081309535,2,2,1,0,1037747.8371032,87,A
35,3,14/1/96,20,f,26,The ham ate Tim,Non-sensible,edin_semantics,emo_sem_emo_sem,0.984216323005967,1,2,2,1,1037749.56601447,67,A
35,3,14/1/96,20,f,27,The pill swallowed Luke,Non-sensible,edin_semantics,emo_sem_emo_sem,1.27782549406402,1,1,1,1,1037751.58892619,22,A
35,3,14/1/96,20,f,28,Ryan stroked the blanket,Sensible,edin_semantics,emo_sem_emo_sem,0.936646559508517,2,1,1,1,1037753.27077058,116,A
35,3,14/1/96,20,f,29,Tom grated the carrots,Sensible,edin_semantics,emo_sem_emo_sem,1.14865194261074,1,1,1,1,1037755.16432401,140,A
35,3,14/1/96,20,f,30,The juice drank Matt,Non-sensible,edin_semantics,emo_sem_emo_sem,1.27782870130613,1,1,1,1,1037757.18732681,60,A
35,3,14/1/96,20,f,31,Ian filed the report,Sensible,edin_semantics,emo_sem_emo_sem,1.60691001312807,1,2,2,1,1037759.53947699,99,A
35,3,14/1/96,20,f,32,Joe entered the office,Sensible,edin_semantics,emo_sem_emo_sem,1.11458969430532,2,2,1,0,1037761.39774847,133,A
35,3,14/1/96,20,f,33,The museum visited Mary,Non-sensible,edin_semantics,emo_sem_emo_sem,1.4787040790543,1,1,1,1,1037763.62057083,16,A
35,3,14/1/96,20,f,34,The house built Kate,Non-sensible,edin_semantics,emo_sem_emo_sem,1.2902733447263,1,1,1,1,1037765.65530948,46,A
35,3,14/1/96,20,f,35,Fred chopped the carrots,Sensible,edin_semantics,emo_sem_emo_sem,0.890455578803085,1,1,1,1,1037767.29037245,102,A
35,3,14/1/96,20,f,36,The papers filed Lara,Non-sensible,edin_semantics,emo_sem_emo_sem,0.983699960983358,2,1,2,0,1037769.01897486,24,A
35,3,14/1/96,20,f,37,Jack cleaned the bath,Sensible,edin_semantics,emo_sem_emo_sem,1.36042993376032,2,1,1,1,1037771.12422193,80,A
35,3,14/1/96,20,f,38,The box lifted Kate,Non-sensible,edin_semantics,emo_sem_emo_sem,0.972707545384765,1,2,2,1,1037772.84135854,69,A
35,3,14/1/96,20,f,39,Tom whisked the cream,Sensible,edin_semantics,emo_sem_emo_sem,1.30188379099127,2,2,1,0,1037774.88782855,137,A
35,3,14/1/96,20,f,40,Adam chewed the fat,Sensible,edin_semantics,emo_sem_emo_sem,0.901418167166412,2,1,1,1,1037776.53436244,106,A
35,3,14/1/96,20,f,41,Sara jumped the hedge,Sensible,edin_semantics,emo_sem_emo_sem,0.936847331351601,2,1,1,1,1037778.21625559,92,A
35,3,14/1/96,20,f,42,The flour weighed Jen,Non-sensible,edin_semantics,emo_sem_emo_sem,1.65454071364366,1,1,1,1,1037780.6154643,64,A
35,3,14/1/96,20,f,43,Alex wrote the report,Sensible,edin_semantics,emo_sem_emo_sem,1.30157942615915,1,2,2,1,1037782.66192918,149,A
35,3,14/1/96,20,f,44,The dishes washed Mark,Non-sensible,edin_semantics,emo_sem_emo_sem,0.854543728521094,1,2,2,1,1037784.26146612,57,A
35,3,14/1/96,20,f,45,Eve ironed the trousers,Sensible,edin_semantics,emo_sem_emo_sem,1.25419215334114,1,1,1,1,1037786.26084841,130,A
35,3,14/1/96,20,f,46,The shelf dusted Jake,Non-sensible,edin_semantics,emo_sem_emo_sem,0.948949123267084,1,2,2,1,1037787.95452808,47,A
35,3,14/1/96,20,f,47,The lesson taught Eve,Non-sensible,edin_semantics,emo_sem_emo_sem,1.19610111450311,1,2,2,1,1037789.89505377,15,A
35,3,14/1/96,20,f,48,Lucy wiped the desk,Sensible,edin_semantics,emo_sem_emo_sem,1.06721396755893,2,2,1,0,1037791.70632797,115,A
35,3,14/1/96,20,f,49,The puzzle solved Joe,Non-sensible,edin_semantics,emo_sem_emo_sem,1.33788865047973,1,1,1,1,1037793.78798628,34,A
35,3,14/1/96,20,f,50,Ryan knitted the socks,Sensible,edin_semantics,emo_sem_emo_sem,1.53801418095827,2,2,1,0,1037796.06969443,141,A
35,3,14/1/96,20,f,51,The room entered Ryan,Non-sensible,edin_semantics,emo_sem_emo_sem,1.12621040362865,1,1,1,1,1037797.9397242,58,A
35,3,14/1/96,20,f,52,Erin described the church,Sensible,edin_semantics,emo_sem_emo_sem,0.937817835249007,2,2,1,0,1037799.62155192,117,A
35,3,14/1/96,20,f,53,Liam mixed the nuts,Sensible,edin_semantics,emo_sem_emo_sem,1.07823877595365,1,2,2,1,1037801.44452701,83,A
35,3,14/1/96,20,f,54,Rob measured the curtains,Sensible,edin_semantics,emo_sem_emo_sem,1.18327320879325,1,1,1,1,1037803.37332679,126,A
35,3,14/1/96,20,f,55,John carried the kettle,Sensible,edin_semantics,emo_sem_emo_sem,0.960599659825675,2,2,1,0,1037805.07870799,105,A
35,3,14/1/96,20,f,56,The herbs chopped Phil,Non-sensible,edin_semantics,emo_sem_emo_sem,1.10145581990946,2,2,1,0,1037806.92521668,27,A
35,3,14/1/96,20,f,57,The hill climbed Luke,Non-sensible,edin_semantics,emo_sem_emo_sem,1.05493994813878,2,1,1,1,1037808.72470725,68,A
35,3,14/1/96,20,f,58,The tree hugged Amy,Non-sensible,edin_semantics,emo_sem_emo_sem,0.925366456620395,2,2,1,0,1037810.39475165,11,A
35,3,14/1/96,20,f,59,Fred served the dessert,Sensible,edin_semantics,emo_sem_emo_sem,1.38338109955657,1,2,2,1,1037812.52354226,145,A
35,3,14/1/96,20,f,60,Bill trimmed the hair,Sensible,edin_semantics,emo_sem_emo_sem,1.23126472113654,1,2,2,1,1037814.49940346,107,A
35,3,14/1/96,20,f,61,The fur stroked Rob,Non-sensible,edin_semantics,emo_sem_emo_sem,1.16069696669001,2,2,1,0,1037816.40474854,41,A
35,3,14/1/96,20,f,62,The scarf knitted Tom,Non-sensible,edin_semantics,emo_sem_emo_sem,0.878187332302332,2,1,1,1,1037818.02775365,66,A
35,3,14/1/96,20,f,63,The bill paid Mike,Non-sensible,edin_semantics,emo_sem_emo_sem,0.92571347753983,2,2,1,0,1037819.6979257,59,A
35,3,14/1/96,20,f,64,The letter typed Phil,Non-sensible,edin_semantics,emo_sem_emo_sem,1.25440799910575,1,2,2,1,1037821.69726084,49,A
35,3,14/1/96,20,f,65,Joe iced the donut,Sensible,edin_semantics,emo_sem_emo_sem,1.31316325254738,2,2,1,0,1037823.75545932,119,A
35,3,14/1/96,20,f,66,Anna polished the trophy,Sensible,edin_semantics,emo_sem_emo_sem,1.27792299340945,1,1,1,1,1037825.77836687,104,A
35,3,14/1/96,20,f,67,The lever pulled Hugh,Non-sensible,edin_semantics,emo_sem_emo_sem,1.23113963962533,2,2,1,0,1037827.75425085,45,A
35,3,14/1/96,20,f,68,Tom visited the hospital,Sensible,edin_semantics,emo_sem_emo_sem,1.33705124619883,1,2,2,1,1037829.83597458,91,A
35,3,14/1/96,20,f,69,Lucy counted the shoes,Sensible,edin_semantics,emo_sem_emo_sem,2.4073511979077,1,2,2,1,1037832.98799763,123,A
35,3,14/1/96,20,f,70,Fred lent the car,Sensible,edin_semantics,emo_sem_emo_sem,2.54841871373355,1,1,1,1,1037836.28108082,94,A
35,3,14/1/96,20,f,71,Phil solved the problem,Sensible,edin_semantics,emo_sem_emo_sem,0.960290484013967,1,2,2,1,1037837.98643989,109,A
35,3,14/1/96,20,f,72,The pen described John,Non-sensible,edin_semantics,emo_sem_emo_sem,1.32502514461521,1,1,1,1,1037840.05644959,42,A
35,3,14/1/96,20,f,73,Ian dented the bowl,Sensible,edin_semantics,emo_sem_emo_sem,0.947619731770828,2,1,1,1,1037841.75003015,146,A
35,3,14/1/96,20,f,74,The trolley pushed Matt,Non-sensible,edin_semantics,emo_sem_emo_sem,0.889705089968629,2,1,1,1,1037843.3848484,26,A
35,3,14/1/96,20,f,75,The jumper wore Joe,Non-sensible,edin_semantics,emo_sem_emo_sem,1.25458343385253,2,2,1,0,1037845.38423326,25,A
35,3,14/1/96,20,f,76,Josh scrubbed the pot,Sensible,edin_semantics,emo_sem_emo_sem,0.98401972046122,2,2,1,0,1037847.11311277,131,A
35,3,14/1/96,20,f,77,The garden watered Jeff,Non-sensible,edin_semantics,emo_sem_emo_sem,0.784247625386342,2,1,1,1,1037848.64212782,54,A
35,3,14/1/96,20,f,78,The thread measured Amy,Non-sensible,edin_semantics,emo_sem_emo_sem,1.10181053809356,1,2,2,1,1037850.48859482,51,A
35,3,14/1/96,20,f,79,The movie watched Ella,Non-sensible,edin_semantics,emo_sem_emo_sem,1.43141270207707,1,2,2,1,1037852.66442119,33,A
35,3,14/1/96,20,f,80,Leo passed the salt,Sensible,edin_semantics,emo_sem_emo_sem,1.28995615092572,1,1,1,1,1037854.69908383,118,A
35,3,14/1/96,20,f,81,Ben climbed the stairs,Sensible,edin_semantics,emo_sem_emo_sem,1.85474353807513,1,2,2,1,1037857.2983132,143,A
35,3,14/1/96,20,f,82,Jack drank the beer,Sensible,edin_semantics,emo_sem_emo_sem,1.77223082468845,2,2,1,0,1037859.81521459,135,A
35,3,14/1/96,20,f,83,Beth washed the pan,Sensible,edin_semantics,emo_sem_emo_sem,0.854751235339791,2,1,1,1,1037861.4147124,132,A
35,3,14/1/96,20,f,84,Ella mashed the turnip,Sensible,edin_semantics,emo_sem_emo_sem,0.866428712499328,2,2,1,0,1037863.02599353,103,A
35,3,14/1/96,20,f,85,The room tidied Sam,Non-sensible,edin_semantics,emo_sem_emo_sem,0.925362928654067,2,1,1,1,1037864.69607289,2,A
35,3,14/1/96,20,f,86,The eggs whisked Dan,Non-sensible,edin_semantics,emo_sem_emo_sem,0.901733436621726,2,1,1,1,1037866.3426581,62,A
35,3,14/1/96,20,f,87,The plans cancelled Ian,Non-sensible,edin_semantics,emo_sem_emo_sem,1.34844103595242,1,2,2,1,1037868.4361132,7,A
35,3,14/1/96,20,f,88,The story wrote Ewan,Non-sensible,edin_semantics,emo_sem_emo_sem,0.77260061679408,2,1,1,1,1037869.95332216,74,A
35,3,14/1/96,20,f,89,The floor cleaned Tim,Non-sensible,edin_semantics,emo_sem_emo_sem,0.960652578854933,2,2,1,0,1037871.65870561,5,A
35,3,14/1/96,20,f,90,Eve typed the message,Sensible,edin_semantics,emo_sem_emo_sem,1.14827124588192,1,1,1,1,1037873.55230041,124,A
35,3,14/1/96,20,f,91,The paper cut Jon,Non-sensible,edin_semantics,emo_sem_emo_sem,1.98406943236478,1,1,1,1,1037876.28080789,20,A
35,3,14/1/96,20,f,92,Luke read the poster,Sensible,edin_semantics,emo_sem_emo_sem,0.890258014202118,1,2,2,1,1037877.91561523,79,A
35,3,14/1/96,20,f,93,The wall punched Jane,Non-sensible,edin_semantics,emo_sem_emo_sem,0.7491144874366,2,1,1,1,1037879.40927874,50,A
35,3,14/1/96,20,f,94,Jay painted the portrait,Sensible,edin_semantics,emo_sem_emo_sem,0.749067020602524,2,1,1,1,1037880.90296212,110,A
35,3,14/1/96,20,f,95,Luke watered the plants,Sensible,edin_semantics,emo_sem_emo_sem,0.902380011626519,2,2,1,0,1037882.54955086,129,A
35,3,14/1/96,20,f,96,The milk sniffed Phil,Non-sensible,edin_semantics,emo_sem_emo_sem,0.808249154593796,2,1,1,1,1037884.10203729,18,A
35,3,14/1/96,20,f,97,Ian mailed the invite,Sensible,edin_semantics,emo_sem_emo_sem,0.937436176347546,2,2,1,0,1037885.78384672,89,A
35,3,14/1/96,20,f,98,The fence jumped Jon,Non-sensible,edin_semantics,emo_sem_emo_sem,1.11379558732733,2,2,1,0,1037887.64213905,17,A
35,3,14/1/96,20,f,99,Erin punched the monitor,Sensible,edin_semantics,emo_sem_emo_sem,1.20738121750765,1,2,2,1,1037889.59445607,125,A
35,3,14/1/96,20,f,100,The parcel mailed Rob,Non-sensible,edin_semantics,emo_sem_emo_sem,1.23081827652641,1,1,1,1,1037891.57033202,14,A
35,3,14/1/96,20,f,101,Tim took the ticket,Sensible,edin_semantics,emo_sem_emo_sem,1.50115299446043,1,1,1,1,1037893.81671717,128,A
35,3,14/1/96,20,f,102,Max searched the internet,Sensible,edin_semantics,emo_sem_emo_sem,0.832170182606205,2,2,1,0,1037895.39275355,85,A
35,3,14/1/96,20,f,103,The potatoes mashed Will,Non-sensible,edin_semantics,emo_sem_emo_sem,1.00876307894941,2,1,1,1,1037897.14512946,28,A
35,3,14/1/96,20,f,104,The cheese grated Andy,Non-sensible,edin_semantics,emo_sem_emo_sem,1.61989411059767,1,2,2,1,1037899.50915179,65,A
35,3,14/1/96,20,f,105,The sheets counted Bill,Non-sensible,edin_semantics,emo_sem_emo_sem,2.01973111974075,1,1,1,1,1037902.27303519,48,A
35,3,14/1/96,20,f,106,Mike ate the steak,Sensible,edin_semantics,emo_sem_emo_sem,1.03211322252173,2,1,1,1,1037904.04895753,142,A
35,3,14/1/96,20,f,107,The cake iced Mary,Non-sensible,edin_semantics,emo_sem_emo_sem,1.05595278716646,1,1,1,1,1037905.84840576,44,A
35,3,14/1/96,20,f,108,Jay squeezed the lemon,Sensible,edin_semantics,emo_sem_emo_sem,1.74896503111813,1,1,1,1,1037908.34175495,76,A
35,3,14/1/96,20,f,109,The towels passed Phil,Non-sensible,edin_semantics,emo_sem_emo_sem,1.70220027922187,1,2,2,1,1037910.78811425,43,A
35,3,14/1/96,20,f,110,The laptop fixed Jen,Non-sensible,edin_semantics,emo_sem_emo_sem,1.20766762201674,2,2,1,0,1037912.74043672,37,A
35,3,14/1/96,20,f,111,The room searched Jen,Non-sensible,edin_semantics,emo_sem_emo_sem,1.14901916892268,1,1,1,1,1037914.63412133,10,A
35,3,14/1/96,20,f,112,The handle pulled Tim,Non-sensible,edin_semantics,emo_sem_emo_sem,0.902070194366388,2,2,1,0,1037916.28057087,73,A
35,3,14/1/96,20,f,113,The spoon licked Will,Non-sensible,edin_semantics,emo_sem_emo_sem,1.16089709708467,2,2,1,0,1037918.18583834,21,A
35,3,14/1/96,20,f,114,Tim sniffed the perfume,Sensible,edin_semantics,emo_sem_emo_sem,0.737211542902514,2,2,1,0,1037919.66776182,93,A
35,3,14/1/96,20,f,115,The book read Sean,Non-sensible,edin_semantics,emo_sem_emo_sem,0.808016631403007,2,1,1,1,1037921.22026204,4,A
35,3,14/1/96,20,f,116,The fruits mixed Jack,Non-sensible,edin_semantics,emo_sem_emo_sem,0.749166444293223,2,1,1,1,1037922.71390117,8,A
35,3,14/1/96,20,f,117,The jar labeled Liz,Non-sensible,edin_semantics,emo_sem_emo_sem,1.80770104122348,1,2,2,1,1037925.2660967,61,A
35,3,14/1/96,20,f,118,Owen swallowed the gum,Sensible,edin_semantics,emo_sem_emo_sem,1.32488338556141,1,2,2,1,1037927.33608459,97,A
35,3,14/1/96,20,f,119,Kate hugged the pillow,Sensible,edin_semantics,emo_sem_emo_sem,1.18422350718174,2,1,1,1,1037929.26488886,86,A
35,3,14/1/96,20,f,120,The card posted Erin,Non-sensible,edin_semantics,emo_sem_emo_sem,1.03114528441802,2,1,1,1,1037931.04080542,36,A
35,3,14/1/96,20,f,121,The money offered Matt,Non-sensible,edin_semantics,emo_sem_emo_sem,1.29008155316114,1,2,2,1,1037933.07549532,9,A
35,3,14/1/96,20,f,122,Erin tidied the garage,Sensible,edin_semantics,emo_sem_emo_sem,1.44227747048717,1,2,2,1,1037935.2631079,77,A
35,3,14/1/96,20,f,123,The dish served Kate,Non-sensible,edin_semantics,emo_sem_emo_sem,0.736753231612965,2,1,1,1,1037936.74498455,70,A
35,3,14/1/96,20,f,124,Kate wore the dress,Sensible,edin_semantics,emo_sem_emo_sem,0.994685641489923,2,1,1,1,1037938.48562429,100,A
35,3,14/1/96,20,f,125,The ball squeezed Josh,Non-sensible,edin_semantics,emo_sem_emo_sem,1.41940552310552,2,2,2,1,1037940.64977479,1,A
35,3,14/1/96,20,f,126,Josh taught the rules,Sensible,edin_semantics,emo_sem_emo_sem,0.701648958493024,2,1,1,1,1037942.09629894,90,A
35,3,14/1/96,20,f,127,Jack posted the gift,Sensible,edin_semantics,emo_sem_emo_sem,1.10166942060459,2,2,2,1,1037943.94280666,111,A
35,3,14/1/96,20,f,128,Amy lifted the crate,Sensible,edin_semantics,emo_sem_emo_sem,2.11333054082934,1,1,2,0,1037946.80077538,144,A
35,3,14/1/96,20,f,129,The bucket lent Max,Non-sensible,edin_semantics,emo_sem_emo_sem,1.03174310957547,2,2,1,0,1037948.57671535,19,A
35,3,14/1/96,20,f,130,The table wiped Beth,Non-sensible,edin_semantics,emo_sem_emo_sem,1.14904354372993,2,1,1,1,1037950.47029315,40,A
35,3,14/1/96,20,f,131,Lucy cut the ribbon,Sensible,edin_semantics,emo_sem_emo_sem,1.00779642374255,1,2,2,1,1037952.22270787,95,A
35,3,14/1/96,20,f,132,Emma pulled the rope,Sensible,edin_semantics,emo_sem_emo_sem,1.50183324527461,1,1,1,1,1037954.46907569,120,A
35,3,14/1/96,20,f,133,The lolly sucked Leah,Non-sensible,edin_semantics,emo_sem_emo_sem,0.984196758829057,2,1,1,1,1037956.19797958,12,A
35,3,14/1/96,20,f,134,The number dialed Tom,Non-sensible,edin_semantics,emo_sem_emo_sem,1.13748762011528,1,2,2,1,1037958.07974905,63,A
35,3,14/1/96,20,f,135,Ian pushed the button,Sensible,edin_semantics,emo_sem_emo_sem,1.5603466744069,1,2,2,1,1037960.38491383,101,A
35,3,14/1/96,20,f,136,The picture painted Ryan,Non-sensible,edin_semantics,emo_sem_emo_sem,0.76089395408053,1,2,2,1,1037961.89036385,35,A
35,3,14/1/96,20,f,137,Jane licked the plate,Sensible,edin_semantics,emo_sem_emo_sem,0.761316985939629,2,1,1,1,1037963.39579239,96,A
35,3,14/1/96,20,f,138,Andy pulled the rope,Sensible,edin_semantics,emo_sem_emo_sem,1.77291460335255,1,1,1,1,1037965.91266363,148,A
35,3,14/1/96,20,f,139,Hugh dialed the hotline,Sensible,edin_semantics,emo_sem_emo_sem,1.04324194474611,1,1,1,1,1037967.70038981,138,A
35,3,14/1/96,20,f,140,Ian labeled the box,Sensible,edin_semantics,emo_sem_emo_sem,0.819741575280204,2,1,1,1,1037969.26463068,136,A
35,3,14/1/96,20,f,141,The folder carried Dan,Non-sensible,edin_semantics,emo_sem_emo_sem,0.890175909502432,1,1,1,1,1037970.89940724,30,A
35,3,14/1/96,20,f,142,The bike kicked Matt,Non-sensible,edin_semantics,emo_sem_emo_sem,1.56082615349442,1,2,2,1,1037973.20460024,39,A
35,3,14/1/96,20,f,143,Hugh kissed the rose,Sensible,edin_semantics,emo_sem_emo_sem,1.04353219782934,1,1,1,1,1037974.99231134,98,A
35,3,14/1/96,20,f,144,Ben got the radio,Sensible,edin_semantics,emo_sem_emo_sem,1.27875494549517,1,1,1,1,1037977.01520766,88,A
35,3,14/1/96,20,f,145,The shirt ironed Josh,Non-sensible,edin_semantics,emo_sem_emo_sem,1.13757389422972,1,2,2,1,1037978.89701947,55,A
35,3,14/1/96,20,f,146,The tomato sliced Liz,Non-sensible,edin_semantics,emo_sem_emo_sem,1.10248277080245,2,2,1,0,1037980.74355927,3,A
35,3,14/1/96,20,f,147,Liz weighed the sugar,Sensible,edin_semantics,emo_sem_emo_sem,0.902142998180352,1,2,2,1,1037982.39007552,139,A
35,3,14/1/96,20,f,148,Adam watched the opera,Sensible,edin_semantics,emo_sem_emo_sem,1.03132649208419,2,1,1,1,1037984.16603762,108,A
35,3,14/1/96,20,f,149,Fred stored the rice,Sensible,edin_semantics,emo_sem_emo_sem,1.56091338978149,2,2,1,0,1037986.47121298,127,A
35,3,14/1/96,20,f,150,Phil cancelled the party,Sensible,edin_semantics,emo_sem_emo_sem,0.937286078580655,2,1,1,1,1037988.15303877,82,A
35,3,14/1/96,20,f,151,The gun carried Ryan,Non-sensible,edin_semantics,emo_sem_emo_sem,1.13773553795181,2,2,1,0,1037990.03482364,75,A
35,3,14/1/96,20,f,152,The bowl scrubbed Liz,Non-sensible,edin_semantics,emo_sem_emo_sem,1.41970251139719,2,1,1,1,1037992.19891673,56,A
35,3,14/1/96,20,f,153,The teeth brushed Carl,Non-sensible,edin_semantics,emo_sem_emo_sem,1.03116901777685,2,1,1,1,1037993.97480988,72,A
35,3,14/1/96,20,f,154,The garlic crushed Erin,Non-sensible,edin_semantics,emo_sem_emo_sem,1.45462974603288,1,1,2,0,1037996.17419133,6,A
35,3,14/1/96,20,f,155,The kettle got Lily,Non-sensible,edin_semantics,emo_sem_emo_sem,1.25458696181886,1,2,2,1,1037998.17359639,13,A
35,3,14/1/96,20,f,156,The mirror kissed Max,Non-sensible,edin_semantics,emo_sem_emo_sem,1.13694495905656,2,2,1,0,1038000.05538864,23,A
35,3,14/1/96,20,f,157,Zoe paid the debt,Sensible,edin_semantics,emo_sem_emo_sem,0.901719004148617,2,1,1,1,1038001.70191323,134,A
35,3,14/1/96,20,f,158,Liam sliced the onion,Sensible,edin_semantics,emo_sem_emo_sem,0.69027777062729,2,1,1,1,1038003.13676183,78,A
35,3,14/1/96,20,f,159,Tom offered the sweets,Sensible,edin_semantics,emo_sem_emo_sem,0.948677471955307,2,1,1,1,1038004.83037254,84,A
35,3,14/1/96,20,f,160,Rose built the shed,Sensible,edin_semantics,emo_sem_emo_sem,1.00759853853378,1,2,2,1,1038006.58277955,121,A
35,3,14/1/96,20,f,161,Max kicked the door,Sensible,edin_semantics,emo_sem_emo_sem,0.773055400233716,2,1,1,1,1038008.09997409,114,A
35,3,14/1/96,20,f,162,Leo carried the wallet,Sensible,edin_semantics,emo_sem_emo_sem,1.09026327403262,2,1,1,1,1038009.93472447,150,A
35,3,14/1/96,20,f,163,The wine stored Leo,Non-sensible,edin_semantics,emo_sem_emo_sem,0.891025501186959,2,1,1,1,1038011.56951932,52,A
35,3,14/1/96,20,f,164,Josh crushed the ice,Sensible,edin_semantics,emo_sem_emo_sem,1.54953033511993,2,2,1,0,1038013.86297358,81,A
35,3,14/1/96,20,f,165,The sofa sold Carl,Non-sensible,edin_semantics,emo_sem_emo_sem,1.67857431503944,1,1,1,1,1038016.28575021,38,A
35,3,14/1/96,20,f,166,The lorry dented Lily,Non-sensible,edin_semantics,emo_sem_emo_sem,0.925893402425572,2,2,1,0,1038017.95584239,71,A
35,3,14/1/96,20,f,167,The photo took Beth,Non-sensible,edin_semantics,emo_sem_emo_sem,1.11417083174456,1,2,1,0,1038019.81411419,53,A
35,3,14/1/96,20,f,168,The coins polished Jon,Non-sensible,edin_semantics,emo_sem_emo_sem,1.13765343325213,2,2,1,0,1038021.69589489,29,A
35,3,14/1/96,20,f,169,Jay sold the bed,Sensible,edin_semantics,emo_sem_emo_sem,1.23006361839361,1,2,2,1,1038023.6717516,113,A
35,3,14/1/96,20,f,170,Alex dusted the house,Sensible,edin_semantics,emo_sem_emo_sem,1.70161464135163,1,1,2,0,1038026.1180846,122,A
35,3,14/1/96,20,f,171,The bushes trimmed Jon,Non-sensible,edin_semantics,emo_sem_emo_sem,0.996112532215193,2,1,1,1,1038027.85874262,32,A
35,3,14/1/96,20,f,172,Dan brushed the hair,Sensible,edin_semantics,emo_sem_emo_sem,1.20741585548967,1,2,2,1,1038029.81109235,147,A
35,3,14/1/96,20,f,173,The toffee chewed Ben,Non-sensible,edin_semantics,emo_sem_emo_sem,1.59581240080297,2,2,1,0,1038032.15158077,31,A
