subject_column,AssignedList_column,subject_dob_column,subject_age_column,subject_gender_column,trialnum_column,Stim_column,Type_column,Experiment_column,OrderGroup_column,ReactionTime_column,StimSide_column,StimPosition_column,Response_column,Valid_column,TrialEndSecs_column,PairID_column,List_column
36,4,19/8/95,20,f,1,Jon jumped the fence,Sensible,edin_semantics,sem_emo_sem_emo,1.37775532016531,2,1,1,1,1042147.3458913,17,B
36,4,19/8/95,20,f,2,The perfume sniffed Tim,Non-sensible,edin_semantics,sem_emo_sem_emo,1.12306284089573,2,1,1,1,1042149.21592685,93,B
36,4,19/8/95,20,f,3,The rose kissed Hugh,Non-sensible,edin_semantics,sem_emo_sem_emo,1.05299797817133,1,2,2,1,1042151.01540394,98,B
36,4,19/8/95,20,f,4,Jen weighed the flour,Sensible,edin_semantics,sem_emo_sem_emo,0.923551492509432,2,2,2,1,1042152.68549677,64,B
36,4,19/8/95,20,f,5,The sweets offered Tom,Non-sensible,edin_semantics,sem_emo_sem_emo,0.667299985070713,1,2,2,1,1042154.09681369,84,B
36,4,19/8/95,20,f,6,The ribbon cut Lucy,Non-sensible,edin_semantics,sem_emo_sem_emo,1.04381379159167,2,1,1,1,1042155.88455045,95,B
36,4,19/8/95,20,f,7,Max lent the bucket,Sensible,edin_semantics,sem_emo_sem_emo,0.937627005740069,2,1,1,1,1042157.56638137,19,B
36,4,19/8/95,20,f,8,The wallet carried Leo,Non-sensible,edin_semantics,sem_emo_sem_emo,0.890989580424502,2,2,2,1,1042159.20116242,150,B
36,4,19/8/95,20,f,9,The pillow hugged Kate,Non-sensible,edin_semantics,sem_emo_sem_emo,0.773351747076958,1,2,2,1,1042160.71834669,86,B
36,4,19/8/95,20,f,10,Jack mixed the fruits,Sensible,edin_semantics,sem_emo_sem_emo,0.678962067584507,1,2,2,1,1042162.14143506,8,B
36,4,19/8/95,20,f,11,The dress wore Kate,Non-sensible,edin_semantics,sem_emo_sem_emo,0.761172661208548,2,2,2,1,1042163.64687418,100,B
36,4,19/8/95,20,f,12,Jeff watered the garden,Sensible,edin_semantics,sem_emo_sem_emo,0.655381004558876,1,2,2,1,1042165.04650433,54,B
36,4,19/8/95,20,f,13,The debt paid Zoe,Non-sensible,edin_semantics,sem_emo_sem_emo,1.43186780624092,2,2,2,1,1042167.22225854,134,B
36,4,19/8/95,20,f,14,Mike paid the bill,Sensible,edin_semantics,sem_emo_sem_emo,1.26702134206425,2,1,1,1,1042169.23341997,59,B
36,4,19/8/95,20,f,15,Rob mailed the parcel,Sensible,edin_semantics,sem_emo_sem_emo,1.19661234493833,1,2,2,1,1042171.17401045,14,B
36,4,19/8/95,20,f,16,Andy grated the cheese,Sensible,edin_semantics,sem_emo_sem_emo,0.949322443339042,2,1,1,1,1042172.8676311,65,B
36,4,19/8/95,20,f,17,Josh squeezed the ball,Sensible,edin_semantics,sem_emo_sem_emo,0.890783676994033,1,1,1,1,1042174.50241792,1,B
36,4,19/8/95,20,f,18,Leo stored the wine,Sensible,edin_semantics,sem_emo_sem_emo,0.984477069694549,2,2,2,1,1042176.23130353,52,B
36,4,19/8/95,20,f,19,The plate licked Jane,Non-sensible,edin_semantics,sem_emo_sem_emo,0.820414128596894,1,2,2,1,1042177.79555595,96,B
36,4,19/8/95,20,f,20,Amy hugged the tree,Sensible,edin_semantics,sem_emo_sem_emo,1.36065155256074,1,1,1,1,1042179.90079084,11,B
36,4,19/8/95,20,f,21,Lily dented the lorry,Sensible,edin_semantics,sem_emo_sem_emo,0.984537686104886,1,1,1,1,1042181.62970563,71,B
36,4,19/8/95,20,f,22,Tom knitted the scarf,Sensible,edin_semantics,sem_emo_sem_emo,2.00803760648705,2,2,2,1,1042184.38180604,66,B
36,4,19/8/95,20,f,23,Beth took the photo,Sensible,edin_semantics,sem_emo_sem_emo,2.31377551017795,2,1,1,1,1042187.4397133,53,B
36,4,19/8/95,20,f,24,Dan carried the folder,Sensible,edin_semantics,sem_emo_sem_emo,1.3251810153015,2,2,2,1,1042189.50966655,30,B
36,4,19/8/95,20,f,25,Jen fixed the laptop,Sensible,edin_semantics,sem_emo_sem_emo,3.04276342794765,2,1,1,1,1042193.29679843,37,B
36,4,19/8/95,20,f,26,Tim cleaned the floor,Sensible,edin_semantics,sem_emo_sem_emo,0.925855877925642,2,1,1,1,1042194.96688164,5,B
36,4,19/8/95,20,f,27,Lara filed the papers,Sensible,edin_semantics,sem_emo_sem_emo,1.17302358464804,1,2,2,1,1042196.88393819,24,B
36,4,19/8/95,20,f,28,The dessert served Fred,Non-sensible,edin_semantics,sem_emo_sem_emo,1.05497298238333,2,1,1,1,1042198.68339252,145,B
36,4,19/8/95,20,f,29,Amy measured the thread,Sensible,edin_semantics,sem_emo_sem_emo,0.878677074215375,1,1,1,1,1042200.3064281,51,B
36,4,19/8/95,20,f,30,Luke climbed the hill,Sensible,edin_semantics,sem_emo_sem_emo,1.20770995726343,2,2,2,1,1042202.2587711,68,B
36,4,19/8/95,20,f,31,Mary iced the cake,Sensible,edin_semantics,sem_emo_sem_emo,0.819929838995449,1,2,2,1,1042203.82300171,44,B
36,4,19/8/95,20,f,32,Ella watched the movie,Sensible,edin_semantics,sem_emo_sem_emo,0.950073252781294,2,1,1,1,1042205.51662076,33,B
36,4,19/8/95,20,f,33,John described the pen,Sensible,edin_semantics,sem_emo_sem_emo,1.00869059597608,1,2,2,1,1042207.26902232,42,B
36,4,19/8/95,20,f,34,Jon trimmed the bushes,Sensible,edin_semantics,sem_emo_sem_emo,0.784847054281272,2,2,2,1,1042208.79797836,32,B
36,4,19/8/95,20,f,35,Josh ironed the shirt,Sensible,edin_semantics,sem_emo_sem_emo,0.926149017643183,1,1,1,1,1042210.46808049,55,B
36,4,19/8/95,20,f,36,The office entered Joe,Non-sensible,edin_semantics,sem_emo_sem_emo,0.82003054546658,1,1,1,1,1042212.03229603,133,B
36,4,19/8/95,20,f,37,Jon cut the paper,Sensible,edin_semantics,sem_emo_sem_emo,1.04414060688578,2,2,2,1,1042213.81999238,20,B
36,4,19/8/95,20,f,38,Luke swallowed the pill,Sensible,edin_semantics,sem_emo_sem_emo,0.914496556739323,1,2,2,1,1042215.47835257,22,B
36,4,19/8/95,20,f,39,The portrait painted Jay,Non-sensible,edin_semantics,sem_emo_sem_emo,0.749584344681352,1,2,2,1,1042216.9719933,110,B
36,4,19/8/95,20,f,40,Phil passed the towels,Sensible,edin_semantics,sem_emo_sem_emo,0.761326607665978,1,1,1,1,1042218.47743113,43,B
36,4,19/8/95,20,f,41,Tim pulled the handle,Sensible,edin_semantics,sem_emo_sem_emo,0.808144599199295,1,1,1,1,1042220.02992718,73,B
36,4,19/8/95,20,f,42,The nuts mixed Liam,Non-sensible,edin_semantics,sem_emo_sem_emo,1.24348293500952,1,1,1,1,1042222.01752488,83,B
36,4,19/8/95,20,f,43,Ben chewed the toffee,Sensible,edin_semantics,sem_emo_sem_emo,1.49030811095145,1,1,1,1,1042224.25218989,31,B
36,4,19/8/95,20,f,44,Mark washed the dishes,Sensible,edin_semantics,sem_emo_sem_emo,0.84344579547178,2,1,1,1,1042225.83993069,57,B
36,4,19/8/95,20,f,45,The bed sold Jay,Non-sensible,edin_semantics,sem_emo_sem_emo,0.749401212553494,2,1,1,1,1042227.33359387,113,B
36,4,19/8/95,20,f,46,The internet searched Max,Non-sensible,edin_semantics,sem_emo_sem_emo,0.961221218341962,2,1,1,1,1042229.03911843,85,B
36,4,19/8/95,20,f,47,Sean read the book,Sensible,edin_semantics,sem_emo_sem_emo,1.74924309679773,2,2,2,1,1042231.53230533,4,B
36,4,19/8/95,20,f,48,Phil typed the letter,Sensible,edin_semantics,sem_emo_sem_emo,0.808009254746139,1,1,1,1,1042233.08477637,49,B
36,4,19/8/95,20,f,49,Dan whisked the eggs,Sensible,edin_semantics,sem_emo_sem_emo,1.30186871706974,1,2,2,1,1042235.13122585,62,B
36,4,19/8/95,20,f,50,The candy sucked Sam,Non-sensible,edin_semantics,sem_emo_sem_emo,0.843732841429301,2,1,1,1,1042236.71899519,87,B
36,4,19/8/95,20,f,51,The pot scrubbed Josh,Non-sensible,edin_semantics,sem_emo_sem_emo,0.807854666840285,2,1,1,1,1042238.27146815,131,B
36,4,19/8/95,20,f,52,The kettle carried John,Non-sensible,edin_semantics,sem_emo_sem_emo,0.996022409410216,2,1,1,1,1042240.01213258,105,B
36,4,19/8/95,20,f,53,The church described Erin,Non-sensible,edin_semantics,sem_emo_sem_emo,1.0196361860726,2,1,1,1,1042241.77628924,117,B
36,4,19/8/95,20,f,54,The trousers ironed Eve,Non-sensible,edin_semantics,sem_emo_sem_emo,0.72564214898739,2,2,2,1,1042243.24643422,130,B
36,4,19/8/95,20,f,55,The opera watched Adam,Non-sensible,edin_semantics,sem_emo_sem_emo,0.773256813408807,1,2,2,1,1042244.76362875,108,B
36,4,19/8/95,20,f,56,The message typed Eve,Non-sensible,edin_semantics,sem_emo_sem_emo,0.914049470680766,1,2,2,1,1042246.42199471,124,B
36,4,19/8/95,20,f,57,The lemon squeezed Jay,Non-sensible,edin_semantics,sem_emo_sem_emo,0.737442783196457,1,2,2,1,1042247.90387297,76,B
36,4,19/8/95,20,f,58,The garage tidied Erin,Non-sensible,edin_semantics,sem_emo_sem_emo,0.949453939218074,1,1,1,1,1042249.59745899,77,B
36,4,19/8/95,20,f,59,Leah sucked the lolly,Sensible,edin_semantics,sem_emo_sem_emo,0.726273649954237,2,2,2,1,1042251.06759723,12,B
36,4,19/8/95,20,f,60,Bill counted the sheets,Sensible,edin_semantics,sem_emo_sem_emo,0.902635947568342,1,2,2,1,1042252.71425172,48,B
36,4,19/8/95,20,f,61,Liz sliced the tomato,Sensible,edin_semantics,sem_emo_sem_emo,1.01991136535071,2,1,1,1,1042254.47837149,3,B
36,4,19/8/95,20,f,62,Kate built the house,Sensible,edin_semantics,sem_emo_sem_emo,0.93802662496455,2,2,2,1,1042256.16024026,46,B
36,4,19/8/95,20,f,63,Ian cancelled the plans,Sensible,edin_semantics,sem_emo_sem_emo,0.914408999728039,2,1,1,1,1042257.81857094,7,B
36,4,19/8/95,20,f,64,Carl brushed the teeth,Sensible,edin_semantics,sem_emo_sem_emo,0.89065186039079,2,2,2,1,1042259.45336706,72,B
36,4,19/8/95,20,f,65,The door kicked Max,Non-sensible,edin_semantics,sem_emo_sem_emo,0.807679232093506,2,2,2,1,1042261.00582559,114,B
36,4,19/8/95,20,f,66,The turnip mashed Ella,Non-sensible,edin_semantics,sem_emo_sem_emo,0.725727460929193,1,1,1,1,1042262.47591188,103,B
36,4,19/8/95,20,f,67,The button pushed Ian,Non-sensible,edin_semantics,sem_emo_sem_emo,1.01987961388659,1,1,1,1,1042264.24010381,101,B
36,4,19/8/95,20,f,68,Sam tidied the room,Sensible,edin_semantics,sem_emo_sem_emo,1.11457365821116,1,2,2,1,1042266.0983724,2,B
36,4,19/8/95,20,f,69,Beth wiped the table,Sensible,edin_semantics,sem_emo_sem_emo,0.761600503814407,1,2,2,1,1042267.60381794,40,B
36,4,19/8/95,20,f,70,The invite mailed Ian,Non-sensible,edin_semantics,sem_emo_sem_emo,1.09034858597443,2,1,1,1,1042269.43854138,89,B
36,4,19/8/95,20,f,71,The poster read Luke,Non-sensible,edin_semantics,sem_emo_sem_emo,0.92524907249026,1,1,1,1,1042271.10864255,79,B
36,4,19/8/95,20,f,72,The ticket took Tim,Non-sensible,edin_semantics,sem_emo_sem_emo,0.808441908331588,1,2,2,1,1042272.66111807,128,B
36,4,19/8/95,20,f,73,The plants watered Luke,Non-sensible,edin_semantics,sem_emo_sem_emo,1.32592059962917,1,1,1,1,1042274.73107165,129,B
36,4,19/8/95,20,f,74,Jon polished the coins,Sensible,edin_semantics,sem_emo_sem_emo,0.902708109817468,2,1,1,1,1042276.37769919,29,B
36,4,19/8/95,20,f,75,Hugh pulled the lever,Sensible,edin_semantics,sem_emo_sem_emo,0.831724058720283,1,1,1,1,1042277.95363423,45,B
36,4,19/8/95,20,f,76,The donut iced Joe,Non-sensible,edin_semantics,sem_emo_sem_emo,0.890737813897431,1,1,1,1,1042279.58842105,119,B
36,4,19/8/95,20,f,77,The radio got Ben,Non-sensible,edin_semantics,sem_emo_sem_emo,0.878506771055982,1,2,2,1,1042281.21148453,88,B
36,4,19/8/95,20,f,78,Ryan entered the room,Sensible,edin_semantics,sem_emo_sem_emo,0.879281955421902,1,2,2,1,1042282.83450921,58,B
36,4,19/8/95,20,f,79,The carrots chopped Fred,Non-sensible,edin_semantics,sem_emo_sem_emo,1.34916811203584,1,2,2,1,1042284.92801305,102,B
36,4,19/8/95,20,f,80,Kate lifted the box,Sensible,edin_semantics,sem_emo_sem_emo,0.808351785526611,1,1,1,1,1042286.48046741,69,B
36,4,19/8/95,20,f,81,The box labeled Ian,Non-sensible,edin_semantics,sem_emo_sem_emo,1.0436072468292,2,2,2,1,1042288.26816375,136,B
36,4,19/8/95,20,f,82,The bath cleaned Jack,Non-sensible,edin_semantics,sem_emo_sem_emo,0.902145564090461,1,2,2,1,1042289.91475345,80,B
36,4,19/8/95,20,f,83,The monitor punched Erin,Non-sensible,edin_semantics,sem_emo_sem_emo,1.36107233946677,2,1,1,1,1042292.01999956,125,B
36,4,19/8/95,20,f,84,Mary visited the museum,Sensible,edin_semantics,sem_emo_sem_emo,1.27862152527086,2,2,2,1,1042294.04293245,16,B
36,4,19/8/95,20,f,85,Max kissed the mirror,Sensible,edin_semantics,sem_emo_sem_emo,1.01995722856373,1,1,1,1,1042295.80709648,23,B
36,4,19/8/95,20,f,86,The sugar weighed Liz,Non-sensible,edin_semantics,sem_emo_sem_emo,1.46707823814359,2,1,1,1,1042298.01818107,139,B
36,4,19/8/95,20,f,87,The cream whisked Tom,Non-sensible,edin_semantics,sem_emo_sem_emo,0.808009575470351,2,1,1,1,1042299.57067455,137,B
36,4,19/8/95,20,f,88,Phil sniffed the milk,Sensible,edin_semantics,sem_emo_sem_emo,1.16126592701767,2,2,2,1,1042301.47600841,18,B
36,4,19/8/95,20,f,89,The rope pulled Emma,Non-sensible,edin_semantics,sem_emo_sem_emo,0.913968328153715,1,2,2,1,1042303.13428137,120,B
36,4,19/8/95,20,f,90,The house dusted Alex,Non-sensible,edin_semantics,sem_emo_sem_emo,0.855395244667307,1,2,2,1,1042304.733826,122,B
36,4,19/8/95,20,f,91,Liz scrubbed the bowl,Sensible,edin_semantics,sem_emo_sem_emo,0.949445279780775,2,2,2,1,1042306.42740881,56,B
36,4,19/8/95,20,f,92,Will mashed the potatoes,Sensible,edin_semantics,sem_emo_sem_emo,0.832045742543414,1,2,2,1,1042308.00344648,28,B
36,4,19/8/95,20,f,93,The hedge jumped Sara,Non-sensible,edin_semantics,sem_emo_sem_emo,0.725795133272186,1,2,2,1,1042309.47355201,92,B
36,4,19/8/95,20,f,94,The hospital visited Tom,Non-sensible,edin_semantics,sem_emo_sem_emo,0.913850623182952,2,1,1,1,1042311.13188205,91,B
36,4,19/8/95,20,f,95,Rob stroked the fur,Sensible,edin_semantics,sem_emo_sem_emo,0.879038527724333,2,1,1,1,1042312.75494104,41,B
36,4,19/8/95,20,f,96,Liz labeled the jar,Sensible,edin_semantics,sem_emo_sem_emo,1.3965342171723,1,1,1,1,1042314.89546012,61,B
36,4,19/8/95,20,f,97,Matt pushed the trolley,Sensible,edin_semantics,sem_emo_sem_emo,0.902187578612939,2,2,2,1,1042316.54201358,26,B
36,4,19/8/95,20,f,98,Joe wore the jumper,Sensible,edin_semantics,sem_emo_sem_emo,1.0322431147797,2,1,1,1,1042318.31796285,25,B
36,4,19/8/95,20,f,99,The salt passed Leo,Non-sensible,edin_semantics,sem_emo_sem_emo,0.902392199030146,1,2,2,1,1042319.96451375,118,B
36,4,19/8/95,20,f,100,Ewan wrote the story,Sensible,edin_semantics,sem_emo_sem_emo,1.17299664404709,2,2,2,1,1042321.88157672,74,B
36,4,19/8/95,20,f,101,The trophy polished Anna,Non-sensible,edin_semantics,sem_emo_sem_emo,1.20817853161134,2,2,2,1,1042323.83394249,104,B
36,4,19/8/95,20,f,102,The bowl dented Ian,Non-sensible,edin_semantics,sem_emo_sem_emo,1.0084869377315,2,2,2,1,1042325.58635913,146,B
36,4,19/8/95,20,f,103,The onion sliced Liam,Non-sensible,edin_semantics,sem_emo_sem_emo,0.737919375766069,2,2,2,1,1042327.06828774,78,B
36,4,19/8/95,20,f,104,Carl sold the sofa,Sensible,edin_semantics,sem_emo_sem_emo,0.985188430408016,2,2,2,1,1042328.79714513,38,B
36,4,19/8/95,20,f,105,The socks knitted Ryan,Non-sensible,edin_semantics,sem_emo_sem_emo,0.996836401172914,2,1,1,1,1042330.53779994,141,B
36,4,19/8/95,20,f,106,The pan washed Beth,Non-sensible,edin_semantics,sem_emo_sem_emo,0.973233208293095,1,2,2,1,1042332.25492308,132,B
36,4,19/8/95,20,f,107,The curtains measured Rob,Non-sensible,edin_semantics,sem_emo_sem_emo,1.043488259078,2,2,2,1,1042334.04263354,126,B
36,4,19/8/95,20,f,108,Tom dialed the number,Sensible,edin_semantics,sem_emo_sem_emo,0.879094653879292,1,1,1,1,1042335.66568066,63,B
36,4,19/8/95,20,f,109,The radio fixed Luke,Non-sensible,edin_semantics,sem_emo_sem_emo,1.04371693357825,2,2,2,1,1042337.45334526,112,B
36,4,19/8/95,20,f,110,Matt offered the money,Sensible,edin_semantics,sem_emo_sem_emo,0.819718162529171,2,1,1,1,1042339.01764643,9,B
36,4,19/8/95,20,f,111,The fat chewed Adam,Non-sensible,edin_semantics,sem_emo_sem_emo,1.40815556794405,1,2,2,1,1042341.16989013,106,B
36,4,19/8/95,20,f,112,The shoes counted Lucy,Non-sensible,edin_semantics,sem_emo_sem_emo,1.20862497622147,2,1,1,1,1042343.12225013,123,B
36,4,19/8/95,20,f,113,Phil chopped the herbs,Sensible,edin_semantics,sem_emo_sem_emo,1.25570467696525,1,1,1,1,1042345.1216568,27,B
36,4,19/8/95,20,f,114,Tim ate the ham,Sensible,edin_semantics,sem_emo_sem_emo,0.914651144528762,2,1,1,1,1042346.77996086,67,B
36,4,19/8/95,20,f,115,Lily got the kettle,Sensible,edin_semantics,sem_emo_sem_emo,1.03213759721257,1,1,1,1,1042348.55592007,13,B
36,4,19/8/95,20,f,116,The beer drank Jack,Non-sensible,edin_semantics,sem_emo_sem_emo,1.07924584217835,2,1,1,1,1042350.37887592,135,B
36,4,19/8/95,20,f,117,The carrots grated Tom,Non-sensible,edin_semantics,sem_emo_sem_emo,0.949436940951273,2,2,2,1,1042352.07250876,140,B
36,4,19/8/95,20,f,118,Eve taught the lesson,Sensible,edin_semantics,sem_emo_sem_emo,1.69038649532013,2,1,1,1,1042354.50706165,15,B
36,4,19/8/95,20,f,119,The steak ate Mike,Non-sensible,edin_semantics,sem_emo_sem_emo,1.50239386677276,1,2,2,1,1042356.75346027,142,B
36,4,19/8/95,20,f,120,Erin posted the card,Sensible,edin_semantics,sem_emo_sem_emo,0.938122520805337,1,2,2,1,1042358.43525591,36,B
36,4,19/8/95,20,f,121,The car lent Fred,Non-sensible,edin_semantics,sem_emo_sem_emo,0.926396614755504,2,2,2,1,1042360.10536189,94,B
36,4,19/8/95,20,f,122,Ryan carried the gun,Sensible,edin_semantics,sem_emo_sem_emo,1.03228737425525,2,1,1,1,1042361.88131501,75,B
36,4,19/8/95,20,f,123,The stairs climbed Ben,Non-sensible,edin_semantics,sem_emo_sem_emo,1.10252254037187,2,1,1,1,1042363.72787437,143,B
36,4,19/8/95,20,f,124,The crate lifted Amy,Non-sensible,edin_semantics,sem_emo_sem_emo,1.74929890234489,1,2,2,1,1042366.22118412,144,B
36,4,19/8/95,20,f,125,The blanket stroked Ryan,Non-sensible,edin_semantics,sem_emo_sem_emo,0.867471058154479,2,2,2,1,1042367.83247455,116,B
36,4,19/8/95,20,f,126,Erin crushed the garlic,Sensible,edin_semantics,sem_emo_sem_emo,1.83199025783688,2,2,2,1,1042370.40821041,6,B
36,4,19/8/95,20,f,127,The ice crushed Josh,Non-sensible,edin_semantics,sem_emo_sem_emo,1.19684711331502,1,1,1,1,1042372.3487454,81,B
36,4,19/8/95,20,f,128,The gum swallowed Owen,Non-sensible,edin_semantics,sem_emo_sem_emo,1.14958973287139,2,1,1,1,1042374.24233026,97,B
36,4,19/8/95,20,f,129,Will licked the spoon,Sensible,edin_semantics,sem_emo_sem_emo,1.58495757495984,1,1,1,1,1042376.57101131,21,B
36,4,19/8/95,20,f,130,The report filed Ian,Non-sensible,edin_semantics,sem_emo_sem_emo,1.19665243511554,1,1,1,1,1042378.51162648,99,B
36,4,19/8/95,20,f,131,Matt kicked the bike,Sensible,edin_semantics,sem_emo_sem_emo,1.52527832228225,1,1,1,1,1042380.7815,39,B
36,4,19/8/95,20,f,132,The hair trimmed Bill,Non-sensible,edin_semantics,sem_emo_sem_emo,0.972626723581925,1,1,1,1,1042382.49866035,107,B
36,4,19/8/95,20,f,133,The problem solved Phil,Non-sensible,edin_semantics,sem_emo_sem_emo,1.00813286087941,2,1,1,1,1042384.25105774,109,B
36,4,19/8/95,20,f,134,Jane punched the wall,Sensible,edin_semantics,sem_emo_sem_emo,1.45490941544995,1,2,2,1,1042386.4503696,50,B
36,4,19/8/95,20,f,135,The report wrote Alex,Non-sensible,edin_semantics,sem_emo_sem_emo,1.34906291530933,1,1,1,1,1042388.54386864,149,B
36,4,19/8/95,20,f,136,Joe solved the puzzle,Sensible,edin_semantics,sem_emo_sem_emo,1.3961990630487,2,2,2,1,1042390.68440856,34,B
36,4,19/8/95,20,f,137,Ryan painted the picture,Sensible,edin_semantics,sem_emo_sem_emo,0.890839482657611,1,1,1,1,1042392.31922297,35,B
36,4,19/8/95,20,f,138,Kate served the dish,Sensible,edin_semantics,sem_emo_sem_emo,0.984660522546619,1,2,2,1,1042394.04808997,70,B
36,4,19/8/95,20,f,139,The rules taught Josh,Non-sensible,edin_semantics,sem_emo_sem_emo,1.13737472612411,1,2,2,1,1042395.92988446,90,B
36,4,19/8/95,20,f,140,The shed built Rose,Non-sensible,edin_semantics,sem_emo_sem_emo,1.00849495572038,1,1,1,1,1042397.68231201,121,B
36,4,19/8/95,20,f,141,The hair brushed Dan,Non-sensible,edin_semantics,sem_emo_sem_emo,1.25518029695377,2,1,1,1,1042399.68170488,147,B
36,4,19/8/95,20,f,142,The hotline dialed Hugh,Non-sensible,edin_semantics,sem_emo_sem_emo,1.05550730472896,2,2,2,1,1042401.48119031,138,B
36,4,19/8/95,20,f,143,The party cancelled Phil,Non-sensible,edin_semantics,sem_emo_sem_emo,1.20815640187357,2,2,2,1,1042403.43352658,82,B
36,4,19/8/95,20,f,144,The gift posted Jack,Non-sensible,edin_semantics,sem_emo_sem_emo,0.878447758266702,2,1,1,1,1042405.05659648,111,B
36,4,19/8/95,20,f,145,Jake dusted the shelf,Sensible,edin_semantics,sem_emo_sem_emo,1.23193567094859,1,1,1,1,1042407.03241951,47,B
36,4,19/8/95,20,f,146,The rope pulled Andy,Non-sensible,edin_semantics,sem_emo_sem_emo,1.07869484229013,1,2,2,1,1042408.85541834,148,B
36,4,19/8/95,20,f,147,Matt drank the juice,Sensible,edin_semantics,sem_emo_sem_emo,1.07895494753029,1,2,2,1,1042410.67842871,60,B
36,4,19/8/95,20,f,148,The desk wiped Lucy,Non-sensible,edin_semantics,sem_emo_sem_emo,1.0080844318727,2,1,1,1,1042412.43084567,115,B
36,4,19/8/95,20,f,149,Jen searched the room,Sensible,edin_semantics,sem_emo_sem_emo,0.832010463229381,1,2,2,1,1042414.00685318,10,B
36,4,19/8/95,20,f,150,The rice stored Fred,Non-sensible,edin_semantics,sem_emo_sem_emo,0.937284474959597,2,1,1,1,1042415.68867192,127,B
36,4,19/8/95,20,f,151,Jack posted the gift,Sensible,edin_semantics,sem_emo_sem_emo,0.907540103071369,2,1,1,1,1042419.94621786,111,A
36,4,19/8/95,20,f,152,The plans cancelled Ian,Non-sensible,edin_semantics,sem_emo_sem_emo,1.20510890427977,2,1,1,1,1042421.89857112,7,A
36,4,19/8/95,20,f,153,The shirt ironed Josh,Non-sensible,edin_semantics,sem_emo_sem_emo,1.17229490482714,2,1,1,1,1042423.81563602,55,A
36,4,19/8/95,20,f,154,The herbs chopped Phil,Non-sensible,edin_semantics,sem_emo_sem_emo,0.713436763966456,1,1,1,1,1042425.27399255,27,A
36,4,19/8/95,20,f,155,Max searched the internet,Sensible,edin_semantics,sem_emo_sem_emo,1.01955247775186,1,1,1,1,1042427.03818513,85,A
36,4,19/8/95,20,f,156,Amy lifted the crate,Sensible,edin_semantics,sem_emo_sem_emo,0.772582977078855,2,2,2,1,1042428.55535592,144,A
36,4,19/8/95,20,f,157,The puzzle solved Joe,Non-sensible,edin_semantics,sem_emo_sem_emo,0.948937577311881,2,2,2,1,1042430.24896022,34,A
36,4,19/8/95,20,f,158,The money offered Matt,Non-sensible,edin_semantics,sem_emo_sem_emo,0.972592406324111,2,1,1,1,1042431.96611222,9,A
36,4,19/8/95,20,f,159,Ian labeled the box,Sensible,edin_semantics,sem_emo_sem_emo,0.937252402771264,2,2,2,1,1042433.64795373,136,A
36,4,19/8/95,20,f,160,The spoon licked Will,Non-sensible,edin_semantics,sem_emo_sem_emo,0.866277652676217,1,1,1,1,1042435.2592246,21,A
36,4,19/8/95,20,f,161,The pill swallowed Luke,Non-sensible,edin_semantics,sem_emo_sem_emo,0.819232269190252,2,2,2,1,1042436.82346002,22,A
36,4,19/8/95,20,f,162,Dan brushed the hair,Sensible,edin_semantics,sem_emo_sem_emo,0.889468076638877,1,1,1,1,1042438.45828437,147,A
36,4,19/8/95,20,f,163,Phil cancelled the party,Sensible,edin_semantics,sem_emo_sem_emo,1.90143452398479,1,2,2,1,1042441.10451005,82,A
36,4,19/8/95,20,f,164,The garden watered Jeff,Non-sensible,edin_semantics,sem_emo_sem_emo,1.23142668558285,2,2,2,1,1042443.0804524,54,A
36,4,19/8/95,20,f,165,Kate hugged the pillow,Sensible,edin_semantics,sem_emo_sem_emo,1.33709646796342,2,2,2,1,1042445.1621524,86,A
36,4,19/8/95,20,f,166,Erin described the church,Sensible,edin_semantics,sem_emo_sem_emo,0.890215678955428,1,1,1,1,1042446.79698252,117,A
36,4,19/8/95,20,f,167,The pen described John,Non-sensible,edin_semantics,sem_emo_sem_emo,0.948744182125665,2,2,2,1,1042448.4905169,42,A
36,4,19/8/95,20,f,168,The story wrote Ewan,Non-sensible,edin_semantics,sem_emo_sem_emo,1.1254400301259,1,2,2,1,1042450.36063167,74,A
36,4,19/8/95,20,f,169,Jay squeezed the lemon,Sensible,edin_semantics,sem_emo_sem_emo,0.831463953480124,2,2,2,1,1042451.93659589,76,A
36,4,19/8/95,20,f,170,The potatoes mashed Will,Non-sensible,edin_semantics,sem_emo_sem_emo,0.807627916685306,1,2,2,1,1042453.48902971,28,A
36,4,19/8/95,20,f,171,The scarf knitted Tom,Non-sensible,edin_semantics,sem_emo_sem_emo,0.902151016285643,1,2,2,1,1042455.13559215,66,A
36,4,19/8/95,20,f,172,Jane licked the plate,Sensible,edin_semantics,sem_emo_sem_emo,0.725380440009758,1,2,2,1,1042456.60575542,96,A
36,4,19/8/95,20,f,173,Fred chopped the carrots,Sensible,edin_semantics,sem_emo_sem_emo,0.830902690417133,1,2,2,1,1042458.18180462,102,A
36,4,19/8/95,20,f,174,The garlic crushed Erin,Non-sensible,edin_semantics,sem_emo_sem_emo,1.007434329018,2,2,2,1,1042459.93419689,6,A
36,4,19/8/95,20,f,175,The floor cleaned Tim,Non-sensible,edin_semantics,sem_emo_sem_emo,1.30172888247762,2,1,1,1,1042461.98061462,5,A
36,4,19/8/95,20,f,176,Ryan knitted the socks,Sensible,edin_semantics,sem_emo_sem_emo,1.12498428463005,1,1,1,1,1042463.85066268,141,A
36,4,19/8/95,20,f,177,Liam sliced the onion,Sensible,edin_semantics,sem_emo_sem_emo,0.866807805607095,2,2,2,1,1042465.46213944,78,A
36,4,19/8/95,20,f,178,Joe entered the office,Sensible,edin_semantics,sem_emo_sem_emo,1.7707567877369,2,1,1,1,1042467.9787942,133,A
36,4,19/8/95,20,f,179,Kate wore the dress,Sensible,edin_semantics,sem_emo_sem_emo,0.913517072680406,1,2,2,1,1042469.637139,100,A
36,4,19/8/95,20,f,180,The ball squeezed Josh,Non-sensible,edin_semantics,sem_emo_sem_emo,1.14884180971421,1,1,1,1,1042471.53067382,1,A
36,4,19/8/95,20,f,181,The picture painted Ryan,Non-sensible,edin_semantics,sem_emo_sem_emo,0.972379447077401,1,1,1,1,1042473.24779921,35,A
36,4,19/8/95,20,f,182,The book read Sean,Non-sensible,edin_semantics,sem_emo_sem_emo,0.690008043660782,1,2,2,1,1042474.68268212,4,A
36,4,19/8/95,20,f,183,Ben got the radio,Sensible,edin_semantics,sem_emo_sem_emo,0.84335310687311,1,2,2,1,1042476.27045691,88,A
36,4,19/8/95,20,f,184,Leo carried the wallet,Sensible,edin_semantics,sem_emo_sem_emo,0.760601776535623,1,2,2,1,1042477.77584023,150,A
36,4,19/8/95,20,f,185,The coins polished Jon,Non-sensible,edin_semantics,sem_emo_sem_emo,0.995416245539673,2,1,1,1,1042479.51649825,29,A
36,4,19/8/95,20,f,186,The kettle got Lily,Non-sensible,edin_semantics,sem_emo_sem_emo,1.88960630772635,1,1,1,1,1042482.15102849,13,A
36,4,19/8/95,20,f,187,The dishes washed Mark,Non-sensible,edin_semantics,sem_emo_sem_emo,1.29023614095058,2,1,1,1,1042484.18570813,57,A
36,4,19/8/95,20,f,188,The bushes trimmed Jon,Non-sensible,edin_semantics,sem_emo_sem_emo,0.842577922623605,2,2,2,1,1042485.77344091,32,A
36,4,19/8/95,20,f,189,Lucy counted the shoes,Sensible,edin_semantics,sem_emo_sem_emo,0.866081050247885,2,1,1,1,1042487.38471755,123,A
36,4,19/8/95,20,f,190,The milk sniffed Phil,Non-sensible,edin_semantics,sem_emo_sem_emo,0.995170893380418,1,2,2,1,1042489.12538647,18,A
36,4,19/8/95,20,f,191,Phil solved the problem,Sensible,edin_semantics,sem_emo_sem_emo,0.713586220168509,1,1,1,1,1042490.58375936,109,A
36,4,19/8/95,20,f,192,Fred served the dessert,Sensible,edin_semantics,sem_emo_sem_emo,1.17220702720806,2,1,1,1,1042492.50089962,145,A
36,4,19/8/95,20,f,193,Ryan stroked the blanket,Sensible,edin_semantics,sem_emo_sem_emo,0.936959904618561,2,2,2,1,1042494.18266865,116,A
36,4,19/8/95,20,f,194,The laptop fixed Jen,Non-sensible,edin_semantics,sem_emo_sem_emo,1.06680023658555,1,1,1,1,1042495.99391014,37,A
36,4,19/8/95,20,f,195,The cheese grated Andy,Non-sensible,edin_semantics,sem_emo_sem_emo,0.807345360866748,1,1,1,1,1042497.54640202,65,A
36,4,19/8/95,20,f,196,The trolley pushed Matt,Non-sensible,edin_semantics,sem_emo_sem_emo,0.984123955015093,1,2,2,1,1042499.27528987,26,A
36,4,19/8/95,20,f,197,Josh scrubbed the pot,Sensible,edin_semantics,sem_emo_sem_emo,0.936546815093607,1,1,1,1,1042500.9570993,131,A
36,4,19/8/95,20,f,198,The folder carried Dan,Non-sensible,edin_semantics,sem_emo_sem_emo,0.90190887148492,1,2,2,1,1042502.60366752,30,A
36,4,19/8/95,20,f,199,Hugh kissed the rose,Sensible,edin_semantics,sem_emo_sem_emo,1.08994062803686,2,2,2,1,1042504.43840668,98,A
36,4,19/8/95,20,f,200,The tomato sliced Liz,Non-sensible,edin_semantics,sem_emo_sem_emo,0.748932638205588,1,1,1,1,1042505.93208975,3,A
36,4,19/8/95,20,f,201,Andy pulled the rope,Sensible,edin_semantics,sem_emo_sem_emo,0.949458108632825,1,2,2,1,1042507.62571232,148,A
36,4,19/8/95,20,f,202,John carried the kettle,Sensible,edin_semantics,sem_emo_sem_emo,0.842869458603673,2,1,1,1,1042509.21346819,105,A
36,4,19/8/95,20,f,203,Tom whisked the cream,Sensible,edin_semantics,sem_emo_sem_emo,0.772760015563108,1,1,1,1,1042510.7306406,137,A
36,4,19/8/95,20,f,204,Ben climbed the stairs,Sensible,edin_semantics,sem_emo_sem_emo,1.0663730353117,2,1,1,1,1042512.54185162,143,A
36,4,19/8/95,20,f,205,Ian mailed the invite,Sensible,edin_semantics,sem_emo_sem_emo,1.12543169141281,2,1,1,1,1042514.41189903,89,A
36,4,19/8/95,20,f,206,Tom grated the carrots,Sensible,edin_semantics,sem_emo_sem_emo,0.913387501146644,2,2,2,1,1042516.07023581,140,A
36,4,19/8/95,20,f,207,Fred stored the rice,Sensible,edin_semantics,sem_emo_sem_emo,0.713739525293931,2,1,1,1,1042517.52860036,127,A
36,4,19/8/95,20,f,208,The lever pulled Hugh,Non-sensible,edin_semantics,sem_emo_sem_emo,0.819824000704102,2,1,1,1,1042519.09280467,45,A
36,4,19/8/95,20,f,209,The bucket lent Max,Non-sensible,edin_semantics,sem_emo_sem_emo,0.831293329480104,1,1,1,1,1042520.66883336,19,A
36,4,19/8/95,20,f,210,The paper cut Jon,Non-sensible,edin_semantics,sem_emo_sem_emo,0.78391984780319,1,2,2,1,1042522.19776502,20,A
36,4,19/8/95,20,f,211,Anna polished the trophy,Sensible,edin_semantics,sem_emo_sem_emo,0.71352432097774,1,2,2,1,1042523.65616228,104,A
36,4,19/8/95,20,f,212,The handle pulled Tim,Non-sensible,edin_semantics,sem_emo_sem_emo,0.808029780979268,2,1,1,1,1042525.20863396,73,A
36,4,19/8/95,20,f,213,Leo passed the salt,Sensible,edin_semantics,sem_emo_sem_emo,0.760866051190533,1,2,2,1,1042526.71405512,118,A
36,4,19/8/95,20,f,214,Mike ate the steak,Sensible,edin_semantics,sem_emo_sem_emo,0.71320584428031,1,2,2,1,1042528.17246264,142,A
36,4,19/8/95,20,f,215,Bill trimmed the hair,Sensible,edin_semantics,sem_emo_sem_emo,0.725184799870476,1,1,1,1,1042529.64260858,107,A
36,4,19/8/95,20,f,216,The bowl scrubbed Liz,Non-sensible,edin_semantics,sem_emo_sem_emo,0.784500354086049,1,2,2,1,1042531.17159349,56,A
36,4,19/8/95,20,f,217,The hill climbed Luke,Non-sensible,edin_semantics,sem_emo_sem_emo,0.761073237401433,1,2,2,1,1042532.67698225,68,A
36,4,19/8/95,20,f,218,The card posted Erin,Non-sensible,edin_semantics,sem_emo_sem_emo,0.654984592460096,1,2,2,1,1042534.07657583,36,A
36,4,19/8/95,20,f,219,Jay painted the portrait,Sensible,edin_semantics,sem_emo_sem_emo,0.772041919524781,2,2,2,1,1042535.59375241,110,A
36,4,19/8/95,20,f,220,The bike kicked Matt,Non-sensible,edin_semantics,sem_emo_sem_emo,0.866774450521916,1,1,1,1,1042537.20505695,39,A
36,4,19/8/95,20,f,221,Max kicked the door,Sensible,edin_semantics,sem_emo_sem_emo,0.937346374383196,2,2,2,1,1042538.88690327,114,A
36,4,19/8/95,20,f,222,Sara jumped the hedge,Sensible,edin_semantics,sem_emo_sem_emo,1.12557537469547,1,2,2,1,1042540.75690835,92,A
36,4,19/8/95,20,f,223,Luke read the poster,Sensible,edin_semantics,sem_emo_sem_emo,0.972238971036859,2,1,1,1,1042542.47402539,79,A
36,4,19/8/95,20,f,224,The box lifted Kate,Non-sensible,edin_semantics,sem_emo_sem_emo,0.901493536890484,1,1,1,1,1042544.12059072,69,A
36,4,19/8/95,20,f,225,The mirror kissed Max,Non-sensible,edin_semantics,sem_emo_sem_emo,1.01949571003206,2,1,1,1,1042545.8847663,23,A
36,4,19/8/95,20,f,226,Joe iced the donut,Sensible,edin_semantics,sem_emo_sem_emo,0.913441382232122,2,1,1,1,1042547.54310307,119,A
36,4,19/8/95,20,f,227,Tom offered the sweets,Sensible,edin_semantics,sem_emo_sem_emo,0.996284438995644,2,2,2,1,1042549.28377937,84,A
36,4,19/8/95,20,f,228,Erin punched the monitor,Sensible,edin_semantics,sem_emo_sem_emo,0.760530576342717,2,1,1,1,1042550.78918225,125,A
36,4,19/8/95,20,f,229,Liam mixed the nuts,Sensible,edin_semantics,sem_emo_sem_emo,0.760620057582855,1,1,1,1,1042552.29460501,83,A
36,4,19/8/95,20,f,230,The room tidied Sam,Non-sensible,edin_semantics,sem_emo_sem_emo,0.925531628308818,1,2,2,1,1042553.96470297,2,A
36,4,19/8/95,20,f,231,The juice drank Matt,Non-sensible,edin_semantics,sem_emo_sem_emo,1.30184594576713,2,2,2,1,1042556.01111974,60,A
36,4,19/8/95,20,f,232,Jack drank the beer,Sensible,edin_semantics,sem_emo_sem_emo,0.889648322248831,1,1,1,1,1042557.64592709,135,A
36,4,19/8/95,20,f,233,The jumper wore Joe,Non-sensible,edin_semantics,sem_emo_sem_emo,1.5013906492386,1,1,1,1,1042559.89233597,25,A
36,4,19/8/95,20,f,234,Josh crushed the ice,Sensible,edin_semantics,sem_emo_sem_emo,1.59537204995286,2,1,1,1,1042562.23286993,81,A
36,4,19/8/95,20,f,235,Erin tidied the garage,Sensible,edin_semantics,sem_emo_sem_emo,1.24276612198446,2,1,1,1,1042564.22043812,77,A
36,4,19/8/95,20,f,236,The toffee chewed Ben,Non-sensible,edin_semantics,sem_emo_sem_emo,1.0900669923285,2,1,1,1,1042566.05519364,31,A
36,4,19/8/95,20,f,237,Alex wrote the report,Sensible,edin_semantics,sem_emo_sem_emo,1.0193209167337,2,1,1,1,1042567.81934709,149,A
36,4,19/8/95,20,f,238,Sam sucked the candy,Sensible,edin_semantics,sem_emo_sem_emo,1.25476111366879,1,1,1,1,1042569.81877268,87,A
36,4,19/8/95,20,f,239,The wall punched Jane,Non-sensible,edin_semantics,sem_emo_sem_emo,0.890005285502411,1,2,2,1,1042571.45356431,50,A
36,4,19/8/95,20,f,240,The room searched Jen,Non-sensible,edin_semantics,sem_emo_sem_emo,1.39583760965616,2,2,2,1,1042573.59412637,10,A
36,4,19/8/95,20,f,241,Eve typed the message,Sensible,edin_semantics,sem_emo_sem_emo,0.760613643215038,2,2,2,1,1042575.09953983,124,A
36,4,19/8/95,20,f,242,Jack cleaned the bath,Sensible,edin_semantics,sem_emo_sem_emo,0.948920258320868,2,2,2,1,1042576.79311718,80,A
36,4,19/8/95,20,f,243,Tom visited the hospital,Sensible,edin_semantics,sem_emo_sem_emo,1.04235579061788,1,1,1,1,1042578.58083245,91,A
36,4,19/8/95,20,f,244,The bill paid Mike,Non-sensible,edin_semantics,sem_emo_sem_emo,0.984072960331105,2,1,1,1,1042580.30972319,59,A
36,4,19/8/95,20,f,245,The thread measured Amy,Non-sensible,edin_semantics,sem_emo_sem_emo,1.12523605115712,2,1,1,1,1042582.17974142,51,A
36,4,19/8/95,20,f,246,Owen swallowed the gum,Sensible,edin_semantics,sem_emo_sem_emo,0.760699275997467,1,1,2,0,1042583.68517092,97,A
36,4,19/8/95,20,f,247,Adam watched the opera,Sensible,edin_semantics,sem_emo_sem_emo,0.901738568209112,2,2,2,1,1042585.33173208,108,A
36,4,19/8/95,20,f,248,The parcel mailed Rob,Non-sensible,edin_semantics,sem_emo_sem_emo,0.666675219195895,1,2,2,1,1042586.74312693,14,A
36,4,19/8/95,20,f,249,The eggs whisked Dan,Non-sensible,edin_semantics,sem_emo_sem_emo,0.902024972718209,2,2,2,1,1042588.38960502,62,A
36,4,19/8/95,20,f,250,Josh taught the rules,Sensible,edin_semantics,sem_emo_sem_emo,0.878263022634201,2,2,2,1,1042590.01268358,90,A
36,4,19/8/95,20,f,251,Luke fixed the radio,Sensible,edin_semantics,sem_emo_sem_emo,0.724867926794104,1,2,2,1,1042591.48284107,112,A
36,4,19/8/95,20,f,252,The gun carried Ryan,Non-sensible,edin_semantics,sem_emo_sem_emo,0.772050258354284,1,1,1,1,1042593.00001411,75,A
36,4,19/8/95,20,f,253,Rob measured the curtains,Sensible,edin_semantics,sem_emo_sem_emo,0.689424971700646,1,2,2,1,1042594.43485854,126,A
36,4,19/8/95,20,f,254,The number dialed Tom,Non-sensible,edin_semantics,sem_emo_sem_emo,1.10137884679716,1,1,1,1,1042596.28139673,63,A
36,4,19/8/95,20,f,255,The fence jumped Jon,Non-sensible,edin_semantics,sem_emo_sem_emo,1.03084124019369,2,1,1,1,1042598.05732227,17,A
36,4,19/8/95,20,f,256,The museum visited Mary,Non-sensible,edin_semantics,sem_emo_sem_emo,0.913325922447257,1,2,2,1,1042599.71564557,16,A
36,4,19/8/95,20,f,257,The sheets counted Bill,Non-sensible,edin_semantics,sem_emo_sem_emo,0.678289514151402,1,2,2,1,1042601.138741,48,A
36,4,19/8/95,20,f,258,The photo took Beth,Non-sensible,edin_semantics,sem_emo_sem_emo,0.830495373927988,2,1,1,1,1042602.71472895,53,A
36,4,19/8/95,20,f,259,The dish served Kate,Non-sensible,edin_semantics,sem_emo_sem_emo,0.819209818611853,1,2,2,1,1042604.27899228,70,A
36,4,19/8/95,20,f,260,The room entered Ryan,Non-sensible,edin_semantics,sem_emo_sem_emo,0.854093114496209,2,2,2,1,1042605.87850549,58,A
36,4,19/8/95,20,f,261,The lorry dented Lily,Non-sensible,edin_semantics,sem_emo_sem_emo,0.98300110839773,1,1,1,1,1042607.60738372,71,A
36,4,19/8/95,20,f,262,Liz weighed the sugar,Sensible,edin_semantics,sem_emo_sem_emo,1.12464271602221,2,1,1,1,1042609.47742664,139,A
36,4,19/8/95,20,f,263,Lucy cut the ribbon,Sensible,edin_semantics,sem_emo_sem_emo,0.889182955143042,1,1,1,1,1042611.11224682,95,A
36,4,19/8/95,20,f,264,Beth washed the pan,Sensible,edin_semantics,sem_emo_sem_emo,0.759692209772766,1,2,2,1,1042612.61763655,132,A
36,4,19/8/95,20,f,265,The table wiped Beth,Non-sensible,edin_semantics,sem_emo_sem_emo,0.689702716656029,1,2,2,1,1042614.05250343,40,A
36,4,19/8/95,20,f,266,The wine stored Leo,Non-sensible,edin_semantics,sem_emo_sem_emo,0.878182842163369,1,2,2,1,1042615.67557685,52,A
36,4,19/8/95,20,f,267,The tree hugged Amy,Non-sensible,edin_semantics,sem_emo_sem_emo,1.07822722999845,2,1,1,1,1042617.4985234,11,A
36,4,19/8/95,20,f,268,The movie watched Ella,Non-sensible,edin_semantics,sem_emo_sem_emo,0.783742809435353,1,1,1,1,1042619.02750189,33,A
36,4,19/8/95,20,f,269,Adam chewed the fat,Sensible,edin_semantics,sem_emo_sem_emo,1.00755395821761,2,2,2,1,1042620.77990537,106,A
36,4,19/8/95,20,f,270,Ian filed the report,Sensible,edin_semantics,sem_emo_sem_emo,0.819535351241939,1,1,1,1,1042622.34417191,99,A
36,4,19/8/95,20,f,271,Ian pushed the button,Sensible,edin_semantics,sem_emo_sem_emo,0.736909743747674,1,1,1,1,1042623.82603189,101,A
36,4,19/8/95,20,f,272,The shelf dusted Jake,Non-sensible,edin_semantics,sem_emo_sem_emo,1.38364665710833,1,1,1,1,1042625.95483052,47,A
36,4,19/8/95,20,f,273,The teeth brushed Carl,Non-sensible,edin_semantics,sem_emo_sem_emo,0.831409430713393,1,2,2,1,1042627.53082007,72,A
36,4,19/8/95,20,f,274,The cake iced Mary,Non-sensible,edin_semantics,sem_emo_sem_emo,0.7612194865942,1,2,2,1,1042629.03622616,44,A
36,4,19/8/95,20,f,275,The fruits mixed Jack,Non-sensible,edin_semantics,sem_emo_sem_emo,0.807905020192266,1,2,2,1,1042630.58870649,8,A
36,4,19/8/95,20,f,276,Lucy wiped the desk,Sensible,edin_semantics,sem_emo_sem_emo,1.19605460984167,2,1,1,1,1042632.52929023,115,A
36,4,19/8/95,20,f,277,The lolly sucked Leah,Non-sensible,edin_semantics,sem_emo_sem_emo,1.46636270801537,2,2,2,1,1042634.74040272,12,A
36,4,19/8/95,20,f,278,Rose built the shed,Sensible,edin_semantics,sem_emo_sem_emo,1.1139193859417,2,1,1,1,1042636.5986649,121,A
36,4,19/8/95,20,f,279,Ella mashed the turnip,Sensible,edin_semantics,sem_emo_sem_emo,1.01848992682062,2,1,1,1,1042638.36285523,103,A
36,4,19/8/95,20,f,280,Tim sniffed the perfume,Sensible,edin_semantics,sem_emo_sem_emo,0.737149002146907,1,1,1,1,1042639.84477198,93,A
36,4,19/8/95,20,f,281,The ham ate Tim,Non-sensible,edin_semantics,sem_emo_sem_emo,0.889509770553559,2,1,1,1,1042641.47954501,67,A
36,4,19/8/95,20,f,282,The house built Kate,Non-sensible,edin_semantics,sem_emo_sem_emo,0.760760854464024,1,2,2,1,1042642.98500818,46,A
36,4,19/8/95,20,f,283,The papers filed Lara,Non-sensible,edin_semantics,sem_emo_sem_emo,0.642633599811234,1,2,2,1,1042644.37281653,24,A
36,4,19/8/95,20,f,284,The towels passed Phil,Non-sensible,edin_semantics,sem_emo_sem_emo,0.984354233252816,2,1,1,1,1042646.10171817,43,A
36,4,19/8/95,20,f,285,Eve ironed the trousers,Sensible,edin_semantics,sem_emo_sem_emo,0.807644273387268,2,2,2,1,1042647.65418567,130,A
36,4,19/8/95,20,f,286,The letter typed Phil,Non-sensible,edin_semantics,sem_emo_sem_emo,0.690193741582334,1,1,1,1,1042649.08908975,49,A
36,4,19/8/95,20,f,287,The jar labeled Liz,Non-sensible,edin_semantics,sem_emo_sem_emo,1.18429951812141,2,1,1,1,1042651.01786676,61,A
36,4,19/8/95,20,f,288,The lesson taught Eve,Non-sensible,edin_semantics,sem_emo_sem_emo,0.819323995616287,1,1,1,1,1042652.58209289,15,A
36,4,19/8/95,20,f,289,Jay sold the bed,Sensible,edin_semantics,sem_emo_sem_emo,0.725543046020903,1,1,1,1,1042654.05222889,113,A
36,4,19/8/95,20,f,290,Alex dusted the house,Sensible,edin_semantics,sem_emo_sem_emo,0.749283828423359,2,2,2,1,1042655.54590618,122,A
36,4,19/8/95,20,f,291,The flour weighed Jen,Non-sensible,edin_semantics,sem_emo_sem_emo,0.854886579909362,2,2,2,1,1042657.14542741,64,A
36,4,19/8/95,20,f,292,Emma pulled the rope,Sensible,edin_semantics,sem_emo_sem_emo,2.85459023306612,1,2,2,1,1042660.74434311,120,A
36,4,19/8/95,20,f,293,The fur stroked Rob,Non-sensible,edin_semantics,sem_emo_sem_emo,0.902102587395348,1,1,1,1,1042662.39091453,41,A
36,4,19/8/95,20,f,294,Fred lent the car,Sensible,edin_semantics,sem_emo_sem_emo,0.666991450823843,1,2,2,1,1042663.80223306,94,A
36,4,19/8/95,20,f,295,Ian dented the bowl,Sensible,edin_semantics,sem_emo_sem_emo,1.0430687549524,1,2,2,1,1042665.58999098,146,A
36,4,19/8/95,20,f,296,Hugh dialed the hotline,Sensible,edin_semantics,sem_emo_sem_emo,0.820324968080968,2,2,2,1,1042667.15422288,138,A
36,4,19/8/95,20,f,297,Luke watered the plants,Sensible,edin_semantics,sem_emo_sem_emo,0.938121879356913,2,1,1,1,1042668.83602911,129,A
36,4,19/8/95,20,f,298,Zoe paid the debt,Sensible,edin_semantics,sem_emo_sem_emo,0.985367072396912,2,2,2,1,1042670.56493781,134,A
36,4,19/8/95,20,f,299,Tim took the ticket,Sensible,edin_semantics,sem_emo_sem_emo,0.854975740541704,1,2,2,1,1042672.16446416,128,A
36,4,19/8/95,20,f,300,The sofa sold Carl,Non-sensible,edin_semantics,sem_emo_sem_emo,0.807567620882764,1,2,2,1,1042673.71690729,38,A
