subject_column,AssignedList_column,subject_dob_column,subject_age_column,subject_gender_column,trialnum_column,Stim_column,Type_column,Experiment_column,OrderGroup_column,ReactionTime_column,StimSide_column,StimPosition_column,Response_column,Valid_column,TrialEndSecs_column,PairID_column,List_column
37,1,1/10/95,20,f,1,Luke fixed the radio,Sensible,edin_semantics,emo_sem_emo_sem,3.47089386417065,1,2,2,1,1048045.96345857,112,A
37,1,1/10/95,20,f,2,Tom whisked the cream,Sensible,edin_semantics,emo_sem_emo_sem,2.4870466919383,2,1,1,1,1048049.1977849,137,A
37,1,1/10/95,20,f,3,The wall punched Jane,Non-sensible,edin_semantics,emo_sem_emo_sem,2.68755291914567,1,2,2,1,1048052.6320408,50,A
37,1,1/10/95,20,f,4,Luke watered the plants,Sensible,edin_semantics,emo_sem_emo_sem,1.51130832638592,2,1,1,1,1048054.89016051,129,A
37,1,1/10/95,20,f,5,The pen described John,Non-sensible,edin_semantics,emo_sem_emo_sem,0.890363531652838,1,2,2,1,1048056.52497396,42,A
37,1,1/10/95,20,f,6,The milk sniffed Phil,Non-sensible,edin_semantics,emo_sem_emo_sem,1.04377402202226,1,2,2,1,1048058.31266196,18,A
37,1,1/10/95,20,f,7,Liz weighed the sugar,Sensible,edin_semantics,emo_sem_emo_sem,2.0195678723976,1,1,1,1,1048061.07659059,139,A
37,1,1/10/95,20,f,8,The paper cut Jon,Non-sensible,edin_semantics,emo_sem_emo_sem,1.51399437070359,1,2,2,1,1048063.3346856,20,A
37,1,1/10/95,20,f,9,Ian filed the report,Sensible,edin_semantics,emo_sem_emo_sem,3.63115529087372,1,1,1,1,1048067.70983955,99,A
37,1,1/10/95,20,f,10,Fred served the dessert,Sensible,edin_semantics,emo_sem_emo_sem,1.40832939906977,1,1,1,1,1048069.86213393,145,A
37,1,1/10/95,20,f,11,The room searched Jen,Non-sensible,edin_semantics,emo_sem_emo_sem,1.12564657500479,1,2,2,1,1048071.73217429,10,A
37,1,1/10/95,20,f,12,The story wrote Ewan,Non-sensible,edin_semantics,emo_sem_emo_sem,1.23163066455163,1,2,2,1,1048073.70803517,74,A
37,1,1/10/95,20,f,13,The jumper wore Joe,Non-sensible,edin_semantics,emo_sem_emo_sem,1.49025839904789,1,1,1,1,1048075.94268415,25,A
37,1,1/10/95,20,f,14,The tree hugged Amy,Non-sensible,edin_semantics,emo_sem_emo_sem,1.14917952974793,2,1,1,1,1048077.83622507,11,A
37,1,1/10/95,20,f,15,The floor cleaned Tim,Non-sensible,edin_semantics,emo_sem_emo_sem,0.949377928161994,2,1,1,1,1048079.52984315,5,A
37,1,1/10/95,20,f,16,Rose built the shed,Sensible,edin_semantics,emo_sem_emo_sem,1.33794862555806,1,1,1,1,1048081.61154925,121,A
37,1,1/10/95,20,f,17,Fred chopped the carrots,Sensible,edin_semantics,emo_sem_emo_sem,1.00828327937052,1,2,2,1,1048083.36396589,102,A
37,1,1/10/95,20,f,18,Ian pushed the button,Sensible,edin_semantics,emo_sem_emo_sem,0.714912725263275,2,1,1,1,1048084.82236508,101,A
37,1,1/10/95,20,f,19,The pill swallowed Luke,Non-sensible,edin_semantics,emo_sem_emo_sem,0.820148891885765,1,2,2,1,1048086.38663161,22,A
37,1,1/10/95,20,f,20,The shelf dusted Jake,Non-sensible,edin_semantics,emo_sem_emo_sem,1.20860348793212,1,1,1,1,1048088.33893869,47,A
37,1,1/10/95,20,f,21,Tim took the ticket,Sensible,edin_semantics,emo_sem_emo_sem,3.66643275367096,2,2,2,1,1048092.74939223,128,A
37,1,1/10/95,20,f,22,The box lifted Kate,Non-sensible,edin_semantics,emo_sem_emo_sem,1.3607156969374,1,1,1,1,1048094.85462744,69,A
37,1,1/10/95,20,f,23,Jack drank the beer,Sensible,edin_semantics,emo_sem_emo_sem,1.60838437092025,2,1,1,1,1048097.2068934,135,A
37,1,1/10/95,20,f,24,Emma pulled the rope,Sensible,edin_semantics,emo_sem_emo_sem,3.16026078513823,1,2,2,1,1048101.11161179,120,A
37,1,1/10/95,20,f,25,The trolley pushed Matt,Non-sensible,edin_semantics,emo_sem_emo_sem,1.72554144239984,1,2,2,1,1048103.58144247,26,A
37,1,1/10/95,20,f,26,Josh scrubbed the pot,Sensible,edin_semantics,emo_sem_emo_sem,1.05515130364802,1,1,1,1,1048105.38088172,131,A
37,1,1/10/95,20,f,27,The movie watched Ella,Non-sensible,edin_semantics,emo_sem_emo_sem,1.90235820249654,2,1,1,1,1048108.02718533,33,A
37,1,1/10/95,20,f,28,The towels passed Phil,Non-sensible,edin_semantics,emo_sem_emo_sem,0.773321919958107,2,1,1,1,1048109.54435838,43,A
37,1,1/10/95,20,f,29,The house built Kate,Non-sensible,edin_semantics,emo_sem_emo_sem,0.762082227854989,1,2,2,1,1048111.04978499,46,A
37,1,1/10/95,20,f,30,Ian mailed the invite,Sensible,edin_semantics,emo_sem_emo_sem,0.738587439060211,2,1,1,1,1048112.5316934,89,A
37,1,1/10/95,20,f,31,The coins polished Jon,Non-sensible,edin_semantics,emo_sem_emo_sem,1.58533602650277,1,1,1,1,1048114.86039049,29,A
37,1,1/10/95,20,f,32,The plans cancelled Ian,Non-sensible,edin_semantics,emo_sem_emo_sem,1.31493299477734,1,1,1,1,1048116.91859602,7,A
37,1,1/10/95,20,f,33,The scarf knitted Tom,Non-sensible,edin_semantics,emo_sem_emo_sem,2.00820662686601,2,2,2,1,1048119.67088726,66,A
37,1,1/10/95,20,f,34,Lucy cut the ribbon,Sensible,edin_semantics,emo_sem_emo_sem,1.30064291867893,1,1,1,1,1048121.71718921,95,A
37,1,1/10/95,20,f,35,John carried the kettle,Sensible,edin_semantics,emo_sem_emo_sem,0.938678010832518,2,1,1,1,1048123.39900698,105,A
37,1,1/10/95,20,f,36,Mike ate the steak,Sensible,edin_semantics,emo_sem_emo_sem,1.49149606411811,1,2,2,1,1048125.6337108,142,A
37,1,1/10/95,20,f,37,The thread measured Amy,Non-sensible,edin_semantics,emo_sem_emo_sem,1.77350408979692,1,1,1,1,1048128.15055543,51,A
37,1,1/10/95,20,f,38,The lorry dented Lily,Non-sensible,edin_semantics,emo_sem_emo_sem,2.4438871727325,1,1,1,1,1048131.33784022,71,A
37,1,1/10/95,20,f,39,Joe iced the donut,Sensible,edin_semantics,emo_sem_emo_sem,1.18528156797402,2,1,1,1,1048133.26662942,119,A
37,1,1/10/95,20,f,40,The fur stroked Rob,Non-sensible,edin_semantics,emo_sem_emo_sem,1.07990973605774,1,1,1,1,1048135.08966128,41,A
37,1,1/10/95,20,f,41,Erin described the church,Sensible,edin_semantics,emo_sem_emo_sem,1.56115393107757,1,1,1,1,1048137.39480841,117,A
37,1,1/10/95,20,f,42,Andy pulled the rope,Sensible,edin_semantics,emo_sem_emo_sem,2.00815338711254,2,2,2,1,1048140.14691684,148,A
37,1,1/10/95,20,f,43,Kate hugged the pillow,Sensible,edin_semantics,emo_sem_emo_sem,1.07899792434182,1,2,2,1,1048141.96990925,86,A
37,1,1/10/95,20,f,44,Max searched the internet,Sensible,edin_semantics,emo_sem_emo_sem,1.16110620764084,1,1,1,1,1048143.87523509,85,A
37,1,1/10/95,20,f,45,Jack posted the gift,Sensible,edin_semantics,emo_sem_emo_sem,2.05538190260995,1,1,1,1,1048146.6743998,111,A
37,1,1/10/95,20,f,46,The ham ate Tim,Non-sensible,edin_semantics,emo_sem_emo_sem,3.68987622705754,1,1,1,1,1048151.10833402,67,A
37,1,1/10/95,20,f,47,Tom visited the hospital,Sensible,edin_semantics,emo_sem_emo_sem,2.05531038157642,2,1,1,1,1048153.90749969,91,A
37,1,1/10/95,20,f,48,The bucket lent Max,Non-sensible,edin_semantics,emo_sem_emo_sem,4.901491291821,1,1,1,1,1048159.55292421,19,A
37,1,1/10/95,20,f,49,The cake iced Mary,Non-sensible,edin_semantics,emo_sem_emo_sem,1.32589462108444,2,2,2,1,1048161.62284379,44,A
37,1,1/10/95,20,f,50,Tom offered the sweets,Sensible,edin_semantics,emo_sem_emo_sem,5.92475772683974,1,2,2,1,1048168.29141992,84,A
37,1,1/10/95,20,f,51,The sofa sold Carl,Non-sensible,edin_semantics,emo_sem_emo_sem,2.18401535879821,2,2,2,1,1048171.21993908,38,A
37,1,1/10/95,20,f,52,The dish served Kate,Non-sensible,edin_semantics,emo_sem_emo_sem,0.937551636132412,2,2,2,1,1048172.90182452,70,A
37,1,1/10/95,20,f,53,The bike kicked Matt,Non-sensible,edin_semantics,emo_sem_emo_sem,1.59619951189961,1,1,1,1,1048175.24227702,39,A
37,1,1/10/95,20,f,54,The museum visited Mary,Non-sensible,edin_semantics,emo_sem_emo_sem,1.44321493990719,2,2,2,1,1048177.42985367,16,A
37,1,1/10/95,20,f,55,Hugh kissed the rose,Sensible,edin_semantics,emo_sem_emo_sem,1.07854763104115,2,2,2,1,1048179.25286886,98,A
37,1,1/10/95,20,f,56,Joe entered the office,Sensible,edin_semantics,emo_sem_emo_sem,1.39721094002016,1,1,1,1,1048181.39336773,133,A
37,1,1/10/95,20,f,57,Erin punched the monitor,Sensible,edin_semantics,emo_sem_emo_sem,1.13838884804863,2,1,1,1,1048183.27518371,125,A
37,1,1/10/95,20,f,58,The garlic crushed Erin,Non-sensible,edin_semantics,emo_sem_emo_sem,0.879669066518545,2,2,2,1,1048184.89819331,6,A
37,1,1/10/95,20,f,59,The photo took Beth,Non-sensible,edin_semantics,emo_sem_emo_sem,1.05617151944898,1,1,1,1,1048186.6976595,53,A
37,1,1/10/95,20,f,60,Leo passed the salt,Sensible,edin_semantics,emo_sem_emo_sem,2.60871567635331,2,2,2,1,1048190.04960186,118,A
37,1,1/10/95,20,f,61,Amy lifted the crate,Sensible,edin_semantics,emo_sem_emo_sem,5.5367659322219,2,2,2,1,1048196.33007651,144,A
37,1,1/10/95,20,f,62,The handle pulled Tim,Non-sensible,edin_semantics,emo_sem_emo_sem,2.16081531299278,1,1,1,1,1048199.23506463,73,A
37,1,1/10/95,20,f,63,Jay sold the bed,Sensible,edin_semantics,emo_sem_emo_sem,2.53736119158566,1,1,1,1,1048202.51642448,113,A
37,1,1/10/95,20,f,64,The bushes trimmed Jon,Non-sensible,edin_semantics,emo_sem_emo_sem,2.39518141304143,1,2,2,1,1048205.65665042,32,A
37,1,1/10/95,20,f,65,Sara jumped the hedge,Sensible,edin_semantics,emo_sem_emo_sem,1.05526451847982,2,2,2,1,1048207.45614772,92,A
37,1,1/10/95,20,f,66,The book read Sean,Non-sensible,edin_semantics,emo_sem_emo_sem,2.09061189857312,1,2,2,1,1048210.2905838,4,A
37,1,1/10/95,20,f,67,The sheets counted Bill,Non-sensible,edin_semantics,emo_sem_emo_sem,0.93776042596437,1,2,2,1,1048211.97243814,48,A
37,1,1/10/95,20,f,68,Fred stored the rice,Sensible,edin_semantics,emo_sem_emo_sem,1.74924470041879,1,1,1,1,1048214.46593454,127,A
37,1,1/10/95,20,f,69,The jar labeled Liz,Non-sensible,edin_semantics,emo_sem_emo_sem,1.3011243219953,1,1,1,1,1048216.51223168,61,A
37,1,1/10/95,20,f,70,Phil solved the problem,Sensible,edin_semantics,emo_sem_emo_sem,0.961422631633468,1,1,1,1,1048218.21763533,109,A
37,1,1/10/95,20,f,71,The room entered Ryan,Non-sensible,edin_semantics,emo_sem_emo_sem,2.06731210835278,1,2,2,1,1048221.02854423,58,A
37,1,1/10/95,20,f,72,The parcel mailed Rob,Non-sensible,edin_semantics,emo_sem_emo_sem,1.24355189024936,2,2,2,1,1048223.01619773,14,A
37,1,1/10/95,20,f,73,The folder carried Dan,Non-sensible,edin_semantics,emo_sem_emo_sem,1.40831624949351,1,2,2,1,1048225.16846228,30,A
37,1,1/10/95,20,f,74,Hugh dialed the hotline,Sensible,edin_semantics,emo_sem_emo_sem,1.53785702737514,1,2,2,1,1048227.45012681,138,A
37,1,1/10/95,20,f,75,Liam sliced the onion,Sensible,edin_semantics,emo_sem_emo_sem,1.07915668154601,2,2,2,1,1048229.27313718,78,A
37,1,1/10/95,20,f,76,Bill trimmed the hair,Sensible,edin_semantics,emo_sem_emo_sem,2.18463210656773,1,1,1,1,1048232.20164415,107,A
37,1,1/10/95,20,f,77,The fence jumped Jon,Non-sensible,edin_semantics,emo_sem_emo_sem,1.45560826803558,2,1,1,1,1048234.40101438,17,A
37,1,1/10/95,20,f,78,The flour weighed Jen,Non-sensible,edin_semantics,emo_sem_emo_sem,1.07937733805738,1,2,2,1,1048236.22396317,64,A
37,1,1/10/95,20,f,79,The tomato sliced Liz,Non-sensible,edin_semantics,emo_sem_emo_sem,1.91479675215669,1,1,1,1,1048238.88201418,3,A
37,1,1/10/95,20,f,80,Lucy wiped the desk,Sensible,edin_semantics,emo_sem_emo_sem,1.56192815327086,1,1,1,1,1048241.18718024,115,A
37,1,1/10/95,20,f,81,The table wiped Beth,Non-sensible,edin_semantics,emo_sem_emo_sem,1.32620860764291,2,2,2,1,1048243.25716941,40,A
37,1,1/10/95,20,f,82,The mirror kissed Max,Non-sensible,edin_semantics,emo_sem_emo_sem,1.36210089398082,2,1,1,1,1048245.36240622,23,A
37,1,1/10/95,20,f,83,Kate wore the dress,Sensible,edin_semantics,emo_sem_emo_sem,1.24416126147844,2,2,2,1,1048247.35006389,100,A
37,1,1/10/95,20,f,84,Eve ironed the trousers,Sensible,edin_semantics,emo_sem_emo_sem,1.62063754338305,1,2,2,1,1048249.71406025,130,A
37,1,1/10/95,20,f,85,The eggs whisked Dan,Non-sensible,edin_semantics,emo_sem_emo_sem,1.50276333815418,2,2,2,1,1048251.96041621,62,A
37,1,1/10/95,20,f,86,Jay squeezed the lemon,Sensible,edin_semantics,emo_sem_emo_sem,5.2895302324323,1,2,2,1,1048257.99389923,76,A
37,1,1/10/95,20,f,87,The number dialed Tom,Non-sensible,edin_semantics,emo_sem_emo_sem,1.43159807927441,1,1,1,1,1048260.16972721,63,A
37,1,1/10/95,20,f,88,The hill climbed Luke,Non-sensible,edin_semantics,emo_sem_emo_sem,0.867335072020069,2,2,2,1,1048261.78101347,68,A
37,1,1/10/95,20,f,89,The room tidied Sam,Non-sensible,edin_semantics,emo_sem_emo_sem,1.19656070880592,1,2,2,1,1048263.72158951,2,A
37,1,1/10/95,20,f,90,Beth washed the pan,Sensible,edin_semantics,emo_sem_emo_sem,1.12613310979214,2,2,2,1,1048265.59161191,132,A
37,1,1/10/95,20,f,91,Ben got the radio,Sensible,edin_semantics,emo_sem_emo_sem,1.40859174949583,1,2,2,1,1048267.74395536,88,A
37,1,1/10/95,20,f,92,Erin tidied the garage,Sensible,edin_semantics,emo_sem_emo_sem,1.45558581745718,2,1,1,1,1048269.94327171,77,A
37,1,1/10/95,20,f,93,Phil cancelled the party,Sensible,edin_semantics,emo_sem_emo_sem,0.961302040377632,1,2,2,1,1048271.64866445,82,A
37,1,1/10/95,20,f,94,Sam sucked the candy,Sensible,edin_semantics,emo_sem_emo_sem,1.27906155551318,2,1,1,1,1048273.67154474,87,A
37,1,1/10/95,20,f,95,The dishes washed Mark,Non-sensible,edin_semantics,emo_sem_emo_sem,1.71415357699152,1,1,1,1,1048276.12965816,57,A
37,1,1/10/95,20,f,96,Ben climbed the stairs,Sensible,edin_semantics,emo_sem_emo_sem,1.10272619861644,2,1,1,1,1048277.97617006,143,A
37,1,1/10/95,20,f,97,The money offered Matt,Non-sensible,edin_semantics,emo_sem_emo_sem,0.855634823674336,2,1,1,1,1048279.57565536,9,A
37,1,1/10/95,20,f,98,The gun carried Ryan,Non-sensible,edin_semantics,emo_sem_emo_sem,1.03228673292324,2,1,1,1,1048281.35159149,75,A
37,1,1/10/95,20,f,99,Alex wrote the report,Sensible,edin_semantics,emo_sem_emo_sem,1.87967836752068,1,1,1,1,1048283.97437049,149,A
37,1,1/10/95,20,f,100,The picture painted Ryan,Non-sensible,edin_semantics,emo_sem_emo_sem,1.58512659533881,1,1,1,1,1048286.30307463,35,A
37,1,1/10/95,20,f,101,Fred lent the car,Sensible,edin_semantics,emo_sem_emo_sem,2.31447949435096,1,2,2,1,1048289.36097516,94,A
37,1,1/10/95,20,f,102,Max kicked the door,Sensible,edin_semantics,emo_sem_emo_sem,1.38459663477261,2,2,2,1,1048291.48974428,114,A
37,1,1/10/95,20,f,103,Luke read the poster,Sensible,edin_semantics,emo_sem_emo_sem,1.54914194112644,1,1,1,1,1048293.78314883,79,A
37,1,1/10/95,20,f,104,Ian dented the bowl,Sensible,edin_semantics,emo_sem_emo_sem,1.2785176114412,2,2,2,1,1048295.80607562,146,A
37,1,1/10/95,20,f,105,Tom grated the carrots,Sensible,edin_semantics,emo_sem_emo_sem,1.05508074490353,2,2,2,1,1048297.6055633,140,A
37,1,1/10/95,20,f,106,The spoon licked Will,Non-sensible,edin_semantics,emo_sem_emo_sem,1.20802426454611,1,1,1,1,1048299.55789476,21,A
37,1,1/10/95,20,f,107,The card posted Erin,Non-sensible,edin_semantics,emo_sem_emo_sem,1.21991213504225,1,2,2,1,1048301.52201017,36,A
37,1,1/10/95,20,f,108,Eve typed the message,Sensible,edin_semantics,emo_sem_emo_sem,0.8628436854342,1,2,2,1,1048303.12152498,124,A
37,1,1/10/95,20,f,109,Jack cleaned the bath,Sensible,edin_semantics,emo_sem_emo_sem,0.796350379474461,2,2,2,1,1048304.66226658,80,A
37,1,1/10/95,20,f,110,Ella mashed the turnip,Sensible,edin_semantics,emo_sem_emo_sem,1.09076007199474,2,1,1,1,1048306.49701729,103,A
37,1,1/10/95,20,f,111,The teeth brushed Carl,Non-sensible,edin_semantics,emo_sem_emo_sem,1.25417740014382,1,2,2,1,1048308.49638547,72,A
37,1,1/10/95,20,f,112,Leo carried the wallet,Sensible,edin_semantics,emo_sem_emo_sem,1.97248753043823,1,2,2,1,1048311.21330559,150,A
37,1,1/10/95,20,f,113,The juice drank Matt,Non-sensible,edin_semantics,emo_sem_emo_sem,0.913654020871036,2,2,2,1,1048312.87155673,60,A
37,1,1/10/95,20,f,114,The herbs chopped Phil,Non-sensible,edin_semantics,emo_sem_emo_sem,1.14888831437565,2,1,1,1,1048314.76510599,27,A
37,1,1/10/95,20,f,115,Josh taught the rules,Sensible,edin_semantics,emo_sem_emo_sem,1.33673180744518,1,2,2,1,1048316.84682428,90,A
37,1,1/10/95,20,f,116,Jane licked the plate,Sensible,edin_semantics,emo_sem_emo_sem,1.68993523984682,1,2,2,1,1048319.28140154,96,A
37,1,1/10/95,20,f,117,Jay painted the portrait,Sensible,edin_semantics,emo_sem_emo_sem,1.77221767499577,1,2,2,1,1048321.79830742,110,A
37,1,1/10/95,20,f,118,The wine stored Leo,Non-sensible,edin_semantics,emo_sem_emo_sem,5.70064670324791,2,2,2,1,1048328.24340468,52,A
37,1,1/10/95,20,f,119,Rob measured the curtains,Sensible,edin_semantics,emo_sem_emo_sem,3.54828625568189,2,2,2,1,1048332.53627266,126,A
37,1,1/10/95,20,f,120,Liam mixed the nuts,Sensible,edin_semantics,emo_sem_emo_sem,8.41751967940945,1,1,1,1,1048341.69820184,83,A
37,1,1/10/95,20,f,121,The lolly sucked Leah,Non-sensible,edin_semantics,emo_sem_emo_sem,3.30096460261848,1,2,2,1,1048345.74405318,12,A
37,1,1/10/95,20,f,122,The lever pulled Hugh,Non-sensible,edin_semantics,emo_sem_emo_sem,3.8778884196654,2,1,1,1,1048350.36621543,45,A
37,1,1/10/95,20,f,123,Anna polished the trophy,Sensible,edin_semantics,emo_sem_emo_sem,1.76044975442346,2,2,2,1,1048352.871355,104,A
37,1,1/10/95,20,f,124,Alex dusted the house,Sensible,edin_semantics,emo_sem_emo_sem,0.878374313004315,2,2,2,1,1048354.49437358,122,A
37,1,1/10/95,20,f,125,The puzzle solved Joe,Non-sensible,edin_semantics,emo_sem_emo_sem,1.45458516571671,2,2,2,1,1048356.69368384,34,A
37,1,1/10/95,20,f,126,The shirt ironed Josh,Non-sensible,edin_semantics,emo_sem_emo_sem,1.85471114516258,1,1,1,1,1048359.2929565,55,A
37,1,1/10/95,20,f,127,The bowl scrubbed Liz,Non-sensible,edin_semantics,emo_sem_emo_sem,1.10201163066085,2,2,2,1,1048361.13941804,56,A
37,1,1/10/95,20,f,128,Zoe paid the debt,Sensible,edin_semantics,emo_sem_emo_sem,0.867275417782366,2,2,2,1,1048362.75069148,134,A
37,1,1/10/95,20,f,129,The fruits mixed Jack,Non-sensible,edin_semantics,emo_sem_emo_sem,2.45460280543193,1,2,2,1,1048365.94975991,8,A
37,1,1/10/95,20,f,130,Ryan stroked the blanket,Sensible,edin_semantics,emo_sem_emo_sem,1.40786435268819,2,2,2,1,1048368.10206487,116,A
37,1,1/10/95,20,f,131,The laptop fixed Jen,Non-sensible,edin_semantics,emo_sem_emo_sem,0.819729708600789,1,1,2,0,1048369.66627047,37,A
37,1,1/10/95,20,f,132,The garden watered Jeff,Non-sensible,edin_semantics,emo_sem_emo_sem,4.67759515170474,2,2,2,1,1048375.08818275,54,A
37,1,1/10/95,20,f,133,The papers filed Lara,Non-sensible,edin_semantics,emo_sem_emo_sem,2.00800617574714,1,2,2,1,1048377.8403008,24,A
37,1,1/10/95,20,f,134,Adam watched the opera,Sensible,edin_semantics,emo_sem_emo_sem,2.8777184371138,1,2,2,1,1048381.46276357,108,A
37,1,1/10/95,20,f,135,The cheese grated Andy,Non-sensible,edin_semantics,emo_sem_emo_sem,2.25468029174954,2,1,1,1,1048384.46185881,65,A
37,1,1/10/95,20,f,136,Ian labeled the box,Sensible,edin_semantics,emo_sem_emo_sem,1.87830407498404,1,2,2,1,1048387.08459484,136,A
37,1,1/10/95,20,f,137,The bill paid Mike,Non-sensible,edin_semantics,emo_sem_emo_sem,4.11264066852164,2,1,1,1,1048391.94193269,59,A
37,1,1/10/95,20,f,138,The kettle got Lily,Non-sensible,edin_semantics,emo_sem_emo_sem,1.18408816249575,2,1,1,1,1048393.87080336,13,A
37,1,1/10/95,20,f,139,Adam chewed the fat,Sensible,edin_semantics,emo_sem_emo_sem,1.06660652067512,1,2,2,1,1048395.68201726,106,A
37,1,1/10/95,20,f,140,Owen swallowed the gum,Sensible,edin_semantics,emo_sem_emo_sem,1.46608239726629,1,1,1,1,1048397.89309865,97,A
37,1,1/10/95,20,f,141,The lesson taught Eve,Non-sensible,edin_semantics,emo_sem_emo_sem,1.78403242118657,2,1,1,1,1048400.42174391,15,A
37,1,1/10/95,20,f,142,Lucy counted the shoes,Sensible,edin_semantics,emo_sem_emo_sem,2.25445771100931,1,1,1,1,1048403.42086449,123,A
37,1,1/10/95,20,f,143,Josh crushed the ice,Sensible,edin_semantics,emo_sem_emo_sem,2.92496330942959,1,1,1,1,1048407.09037777,81,A
37,1,1/10/95,20,f,144,Tim sniffed the perfume,Sensible,edin_semantics,emo_sem_emo_sem,1.18382869870402,2,1,1,1,1048409.01921444,93,A
37,1,1/10/95,20,f,145,Dan brushed the hair,Sensible,edin_semantics,emo_sem_emo_sem,2.97211677604355,1,1,1,1,1048412.73573366,147,A
37,1,1/10/95,20,f,146,The letter typed Phil,Non-sensible,edin_semantics,emo_sem_emo_sem,1.41982053697575,1,1,1,1,1048414.8997533,49,A
37,1,1/10/95,20,f,147,Ryan knitted the socks,Sensible,edin_semantics,emo_sem_emo_sem,1.03149679536,1,1,1,1,1048416.67573368,141,A
37,1,1/10/95,20,f,148,The potatoes mashed Will,Non-sensible,edin_semantics,emo_sem_emo_sem,6.51172943413258,1,2,2,1,1048423.93237583,28,A
37,1,1/10/95,20,f,149,The ball squeezed Josh,Non-sensible,edin_semantics,emo_sem_emo_sem,1.25467708450742,1,1,1,1,1048425.93173791,1,A
37,1,1/10/95,20,f,150,The toffee chewed Ben,Non-sensible,edin_semantics,emo_sem_emo_sem,2.52514939208049,1,1,1,1,1048429.20135486,31,A
37,1,1/10/95,20,f,151,The party cancelled Phil,Non-sensible,edin_semantics,emo_sem_emo_sem,2.43550126242917,1,1,1,1,1048452.06514948,82,B
37,1,1/10/95,20,f,152,The dessert served Fred,Non-sensible,edin_semantics,emo_sem_emo_sem,1.35763452353422,2,2,2,1,1048454.17035614,145,B
37,1,1/10/95,20,f,153,Matt kicked the bike,Sensible,edin_semantics,emo_sem_emo_sem,0.855085427523591,2,2,2,1,1048455.76993253,39,B
37,1,1/10/95,20,f,154,The shed built Rose,Non-sensible,edin_semantics,emo_sem_emo_sem,0.7370864613913,1,2,2,1,1048457.25178385,121,B
37,1,1/10/95,20,f,155,The steak ate Mike,Non-sensible,edin_semantics,emo_sem_emo_sem,1.3131837786641,1,1,1,1,1048459.30998266,142,B
37,1,1/10/95,20,f,156,Ian cancelled the plans,Sensible,edin_semantics,emo_sem_emo_sem,0.936871385434642,2,2,2,1,1048460.99181807,7,B
37,1,1/10/95,20,f,157,Jen searched the room,Sensible,edin_semantics,emo_sem_emo_sem,0.983969367225654,1,1,1,1,1048462.72072645,10,B
37,1,1/10/95,20,f,158,Dan carried the folder,Sensible,edin_semantics,emo_sem_emo_sem,0.913798345602117,2,1,1,1,1048464.37905039,30,B
37,1,1/10/95,20,f,159,The church described Erin,Non-sensible,edin_semantics,emo_sem_emo_sem,1.00758025737014,1,2,2,1,1048466.13146799,117,B
37,1,1/10/95,20,f,160,Kate served the dish,Sensible,edin_semantics,emo_sem_emo_sem,0.807745300815441,2,1,1,1,1048467.6839371,70,B
37,1,1/10/95,20,f,161,Lily got the kettle,Sensible,edin_semantics,emo_sem_emo_sem,2.20693349011708,2,2,2,1,1048470.63598151,13,B
37,1,1/10/95,20,f,162,Will licked the spoon,Sensible,edin_semantics,emo_sem_emo_sem,0.937391275307164,1,2,2,1,1048472.31784675,21,B
37,1,1/10/95,20,f,163,Carl brushed the teeth,Sensible,edin_semantics,emo_sem_emo_sem,1.03122835129034,1,1,1,1,1048474.09378544,72,B
37,1,1/10/95,20,f,164,Phil passed the towels,Sensible,edin_semantics,emo_sem_emo_sem,1.11315959622152,1,2,2,1,1048475.95203864,43,B
37,1,1/10/95,20,f,165,Jon jumped the fence,Sensible,edin_semantics,emo_sem_emo_sem,1.43093322310597,1,2,2,1,1048478.12785154,17,B
37,1,1/10/95,20,f,166,Leah sucked the lolly,Sensible,edin_semantics,emo_sem_emo_sem,1.08968854078557,1,1,1,1,1048479.96258974,12,B
37,1,1/10/95,20,f,167,Mary visited the museum,Sensible,edin_semantics,emo_sem_emo_sem,1.01895657682326,2,1,1,1,1048481.72677526,16,B
37,1,1/10/95,20,f,168,Mary iced the cake,Sensible,edin_semantics,emo_sem_emo_sem,1.17266309342813,1,1,1,1,1048483.64387383,44,B
37,1,1/10/95,20,f,169,The trophy polished Anna,Non-sensible,edin_semantics,emo_sem_emo_sem,0.972109399503097,1,1,1,1,1048485.3609835,104,B
37,1,1/10/95,20,f,170,The turnip mashed Ella,Non-sensible,edin_semantics,emo_sem_emo_sem,0.819052344304509,1,2,2,1,1048486.92521411,103,B
37,1,1/10/95,20,f,171,The door kicked Max,Non-sensible,edin_semantics,emo_sem_emo_sem,0.90212183073163,2,1,1,1,1048488.57181504,114,B
37,1,1/10/95,20,f,172,The hotline dialed Hugh,Non-sensible,edin_semantics,emo_sem_emo_sem,2.58411247329786,1,1,1,1,1048491.90020456,138,B
37,1,1/10/95,20,f,173,The nuts mixed Liam,Non-sensible,edin_semantics,emo_sem_emo_sem,0.889565896824934,1,2,2,1,1048493.53500838,83,B
37,1,1/10/95,20,f,174,Tom dialed the number,Sensible,edin_semantics,emo_sem_emo_sem,3.74743615079205,2,2,2,1,1048498.02778412,63,B
37,1,1/10/95,20,f,175,Luke climbed the hill,Sensible,edin_semantics,emo_sem_emo_sem,1.86622248857748,1,1,1,1,1048500.63874581,68,B
37,1,1/10/95,20,f,176,The poster read Luke,Non-sensible,edin_semantics,emo_sem_emo_sem,1.97227970266249,1,2,2,1,1048503.3555819,79,B
37,1,1/10/95,20,f,177,Hugh pulled the lever,Sensible,edin_semantics,emo_sem_emo_sem,1.1732981223613,1,2,2,1,1048505.27271447,45,B
37,1,1/10/95,20,f,178,Bill counted the sheets,Sensible,edin_semantics,emo_sem_emo_sem,1.94969993282575,1,1,1,1,1048507.96596822,48,B
37,1,1/10/95,20,f,179,Josh ironed the shirt,Sensible,edin_semantics,emo_sem_emo_sem,1.32528204261325,2,2,2,1,1048510.03592628,55,B
37,1,1/10/95,20,f,180,Sean read the book,Sensible,edin_semantics,emo_sem_emo_sem,2.03116645198315,1,1,1,1,1048512.8115837,4,B
37,1,1/10/95,20,f,181,The desk wiped Lucy,Non-sensible,edin_semantics,emo_sem_emo_sem,1.4547638077056,2,2,2,1,1048515.01092635,115,B
37,1,1/10/95,20,f,182,Mark washed the dishes,Sensible,edin_semantics,emo_sem_emo_sem,1.60749019868672,1,2,2,1,1048517.36316056,57,B
37,1,1/10/95,20,f,183,Phil chopped the herbs,Sensible,edin_semantics,emo_sem_emo_sem,1.40749744710047,1,2,2,1,1048519.51543954,27,B
37,1,1/10/95,20,f,184,Beth took the photo,Sensible,edin_semantics,emo_sem_emo_sem,1.45484719530214,2,2,2,1,1048521.71477,53,B
37,1,1/10/95,20,f,185,John described the pen,Sensible,edin_semantics,emo_sem_emo_sem,1.39582862949464,1,1,1,1,1048523.85531635,42,B
37,1,1/10/95,20,f,186,Rob stroked the fur,Sensible,edin_semantics,emo_sem_emo_sem,1.74888837861363,2,2,2,1,1048526.34869441,41,B
37,1,1/10/95,20,f,187,Carl sold the sofa,Sensible,edin_semantics,emo_sem_emo_sem,1.92538666212931,1,1,1,1,1048529.01846812,38,B
37,1,1/10/95,20,f,188,The kettle carried John,Non-sensible,edin_semantics,emo_sem_emo_sem,1.07815859559923,1,2,2,1,1048530.84145636,105,B
37,1,1/10/95,20,f,189,The car lent Fred,Non-sensible,edin_semantics,emo_sem_emo_sem,1.43068658816628,1,1,1,1,1048533.0172978,94,B
37,1,1/10/95,20,f,190,The curtains measured Rob,Non-sensible,edin_semantics,emo_sem_emo_sem,1.07756429829169,1,1,1,1,1048534.84027867,126,B
37,1,1/10/95,20,f,191,Tim pulled the handle,Sensible,edin_semantics,emo_sem_emo_sem,1.01942354766652,1,2,2,1,1048536.60443725,73,B
37,1,1/10/95,20,f,192,The crate lifted Amy,Non-sensible,edin_semantics,emo_sem_emo_sem,0.935300490586087,1,1,1,1,1048538.28627587,144,B
37,1,1/10/95,20,f,193,Ryan painted the picture,Sensible,edin_semantics,emo_sem_emo_sem,1.56085373554379,1,2,2,1,1048540.59150126,35,B
37,1,1/10/95,20,f,194,The plate licked Jane,Non-sensible,edin_semantics,emo_sem_emo_sem,1.2188438110752,2,1,1,1,1048542.5556016,96,B
37,1,1/10/95,20,f,195,The candy sucked Sam,Non-sensible,edin_semantics,emo_sem_emo_sem,1.1605491139926,2,2,2,1,1048544.46098132,87,B
37,1,1/10/95,20,f,196,The perfume sniffed Tim,Non-sensible,edin_semantics,emo_sem_emo_sem,0.972221652045846,2,2,2,1,1048546.17806116,93,B
37,1,1/10/95,20,f,197,The carrots grated Tom,Non-sensible,edin_semantics,emo_sem_emo_sem,1.10130860866047,1,1,1,1,1048548.02454355,140,B
37,1,1/10/95,20,f,198,The lemon squeezed Jay,Non-sensible,edin_semantics,emo_sem_emo_sem,1.60719160689041,1,1,1,1,1048550.37677135,76,B
37,1,1/10/95,20,f,199,Leo stored the wine,Sensible,edin_semantics,emo_sem_emo_sem,1.50132297701202,2,1,1,1,1048552.62318215,52,B
37,1,1/10/95,20,f,200,The house dusted Alex,Non-sensible,edin_semantics,emo_sem_emo_sem,1.172353276168,1,1,1,1,1048554.54023229,122,B
37,1,1/10/95,20,f,201,The gift posted Jack,Non-sensible,edin_semantics,emo_sem_emo_sem,1.38354466762394,2,2,2,1,1048556.66900398,111,B
37,1,1/10/95,20,f,202,Joe solved the puzzle,Sensible,edin_semantics,emo_sem_emo_sem,1.26622531085741,2,1,1,1,1048558.68018049,34,B
37,1,1/10/95,20,f,203,The trousers ironed Eve,Non-sensible,edin_semantics,emo_sem_emo_sem,3.80676453374326,1,1,1,1,1048563.23176312,130,B
37,1,1/10/95,20,f,204,The pot scrubbed Josh,Non-sensible,edin_semantics,emo_sem_emo_sem,0.960622110287659,2,2,2,1,1048564.93712764,131,B
37,1,1/10/95,20,f,205,The ribbon cut Lucy,Non-sensible,edin_semantics,emo_sem_emo_sem,3.13676535477862,1,2,2,1,1048568.81830923,95,B
37,1,1/10/95,20,f,206,Tom knitted the scarf,Sensible,edin_semantics,emo_sem_emo_sem,1.76031120272819,1,1,1,1,1048571.32344399,66,B
37,1,1/10/95,20,f,207,The wallet carried Leo,Non-sensible,edin_semantics,emo_sem_emo_sem,1.27804807492066,1,1,1,1,1048573.34639259,150,B
37,1,1/10/95,20,f,208,Lara filed the papers,Sensible,edin_semantics,emo_sem_emo_sem,3.31273476837669,1,1,1,1,1048577.40397785,24,B
37,1,1/10/95,20,f,209,Jon cut the paper,Sensible,edin_semantics,emo_sem_emo_sem,1.25495033944026,2,1,1,1,1048579.40336078,20,B
37,1,1/10/95,20,f,210,The dress wore Kate,Non-sensible,edin_semantics,emo_sem_emo_sem,3.54821858345531,1,1,1,1,1048583.69622363,100,B
37,1,1/10/95,20,f,211,The internet searched Max,Non-sensible,edin_semantics,emo_sem_emo_sem,1.23076054663397,2,2,2,1,1048585.67208227,85,B
37,1,1/10/95,20,f,212,The radio got Ben,Non-sensible,edin_semantics,emo_sem_emo_sem,1.13710435782559,2,1,1,1,1048587.553879,88,B
37,1,1/10/95,20,f,213,The rules taught Josh,Non-sensible,edin_semantics,emo_sem_emo_sem,1.65455418406054,1,1,1,1,1048589.95313037,90,B
37,1,1/10/95,20,f,214,Kate built the house,Sensible,edin_semantics,emo_sem_emo_sem,3.21871840907261,1,1,1,1,1048593.91667522,46,B
37,1,1/10/95,20,f,215,Max lent the bucket,Sensible,edin_semantics,emo_sem_emo_sem,1.01897966885008,1,2,2,1,1048595.68082995,19,B
37,1,1/10/95,20,f,216,The carrots chopped Fred,Non-sensible,edin_semantics,emo_sem_emo_sem,1.58401753962971,1,1,1,1,1048598.00954596,102,B
37,1,1/10/95,20,f,217,Sam tidied the room,Sensible,edin_semantics,emo_sem_emo_sem,1.34853661106899,2,1,1,1,1048600.10304917,2,B
37,1,1/10/95,20,f,218,Ryan entered the room,Sensible,edin_semantics,emo_sem_emo_sem,1.53692308580503,1,1,1,1,1048602.38473134,58,B
37,1,1/10/95,20,f,219,The bath cleaned Jack,Non-sensible,edin_semantics,emo_sem_emo_sem,1.40736883762293,1,1,1,1,1048604.53700647,80,B
37,1,1/10/95,20,f,220,Ben chewed the toffee,Sensible,edin_semantics,emo_sem_emo_sem,2.93665329483338,1,2,2,1,1048608.21824406,31,B
37,1,1/10/95,20,f,221,Jon trimmed the bushes,Sensible,edin_semantics,emo_sem_emo_sem,1.05474879778922,1,1,1,1,1048610.01770159,32,B
37,1,1/10/95,20,f,222,The hair trimmed Bill,Non-sensible,edin_semantics,emo_sem_emo_sem,1.5717650083825,2,2,2,1,1048612.33465962,107,B
37,1,1/10/95,20,f,223,The rice stored Fred,Non-sensible,edin_semantics,emo_sem_emo_sem,1.68978770799004,1,2,2,1,1048614.76923721,127,B
37,1,1/10/95,20,f,224,The bed sold Jay,Non-sensible,edin_semantics,emo_sem_emo_sem,2.20698384335265,1,2,2,1,1048617.72126943,113,B
37,1,1/10/95,20,f,225,The pan washed Beth,Non-sensible,edin_semantics,emo_sem_emo_sem,0.936956376768649,2,1,1,1,1048619.40311831,132,B
37,1,1/10/95,20,f,226,Lily dented the lorry,Sensible,edin_semantics,emo_sem_emo_sem,1.11375293135643,1,2,2,1,1048621.2613946,71,B
37,1,1/10/95,20,f,227,Josh squeezed the ball,Sensible,edin_semantics,emo_sem_emo_sem,2.18386943032965,2,2,2,1,1048624.18992401,1,B
37,1,1/10/95,20,f,228,The problem solved Phil,Non-sensible,edin_semantics,emo_sem_emo_sem,1.26633948786184,2,2,2,1,1048626.20110501,109,B
37,1,1/10/95,20,f,229,Jack mixed the fruits,Sensible,edin_semantics,emo_sem_emo_sem,1.94896997022443,1,1,1,1,1048628.89439949,8,B
37,1,1/10/95,20,f,230,Rob mailed the parcel,Sensible,edin_semantics,emo_sem_emo_sem,1.30170386610553,2,1,1,1,1048630.94083935,14,B
37,1,1/10/95,20,f,231,Ewan wrote the story,Sensible,edin_semantics,emo_sem_emo_sem,0.984290409600362,2,1,1,1,1048632.66975351,74,B
37,1,1/10/95,20,f,232,Jeff watered the garden,Sensible,edin_semantics,emo_sem_emo_sem,1.29031054838561,2,1,1,1,1048634.70441582,54,B
37,1,1/10/95,20,f,233,The donut iced Joe,Non-sensible,edin_semantics,emo_sem_emo_sem,1.65497208433226,1,2,2,1,1048637.10397573,119,B
37,1,1/10/95,20,f,234,The button pushed Ian,Non-sensible,edin_semantics,emo_sem_emo_sem,1.6187686980702,1,2,2,1,1048639.46770012,101,B
37,1,1/10/95,20,f,235,Jake dusted the shelf,Sensible,edin_semantics,emo_sem_emo_sem,2.85438465047628,2,2,2,1,1048643.06664661,47,B
37,1,1/10/95,20,f,236,The office entered Joe,Non-sensible,edin_semantics,emo_sem_emo_sem,1.26605981844477,2,2,2,1,1048645.07781735,133,B
37,1,1/10/95,20,f,237,Tim cleaned the floor,Sensible,edin_semantics,emo_sem_emo_sem,1.00767711526714,2,2,2,1,1048646.83022436,5,B
37,1,1/10/95,20,f,238,Matt offered the money,Sensible,edin_semantics,emo_sem_emo_sem,0.961132699158043,1,2,2,1,1048648.53564212,9,B
37,1,1/10/95,20,f,239,Ella watched the movie,Sensible,edin_semantics,emo_sem_emo_sem,0.878291887464002,1,2,2,1,1048650.15862639,33,B
37,1,1/10/95,20,f,240,Matt drank the juice,Sensible,edin_semantics,emo_sem_emo_sem,1.52561379736289,2,1,1,1,1048652.42851306,60,B
37,1,1/10/95,20,f,241,The hospital visited Tom,Non-sensible,edin_semantics,emo_sem_emo_sem,1.11350693786517,2,2,2,1,1048654.28681372,91,B
37,1,1/10/95,20,f,242,Jen weighed the flour,Sensible,edin_semantics,emo_sem_emo_sem,0.949051433475688,2,1,1,1,1048655.980393,64,B
37,1,1/10/95,20,f,243,The rose kissed Hugh,Non-sensible,edin_semantics,emo_sem_emo_sem,0.889928633114323,2,1,1,1,1048657.61520003,98,B
37,1,1/10/95,20,f,244,Eve taught the lesson,Sensible,edin_semantics,emo_sem_emo_sem,1.50172516191378,1,2,2,1,1048659.86161436,15,B
37,1,1/10/95,20,f,245,The ticket took Tim,Non-sensible,edin_semantics,emo_sem_emo_sem,1.19613799755462,2,1,1,1,1048661.80218238,128,B
37,1,1/10/95,20,f,246,The shoes counted Lucy,Non-sensible,edin_semantics,emo_sem_emo_sem,1.8188958321698,2,2,2,1,1048664.3661545,123,B
37,1,1/10/95,20,f,247,Kate lifted the box,Sensible,edin_semantics,emo_sem_emo_sem,1.5722242819611,2,2,2,1,1048666.68306282,69,B
37,1,1/10/95,20,f,248,Jane punched the wall,Sensible,edin_semantics,emo_sem_emo_sem,4.12434027530253,2,1,1,1,1048671.55220227,50,B
37,1,1/10/95,20,f,249,The beer drank Jack,Non-sensible,edin_semantics,emo_sem_emo_sem,2.28934613824822,2,2,2,1,1048674.58659037,135,B
37,1,1/10/95,20,f,250,The opera watched Adam,Non-sensible,edin_semantics,emo_sem_emo_sem,0.889439532533288,2,1,1,1,1048676.22140253,108,B
37,1,1/10/95,20,f,251,Erin crushed the garlic,Sensible,edin_semantics,emo_sem_emo_sem,1.97187527245842,1,1,1,1,1048678.93822194,6,B
37,1,1/10/95,20,f,252,The hair brushed Dan,Non-sensible,edin_semantics,emo_sem_emo_sem,2.01933887717314,1,2,2,1,1048681.7021108,147,B
37,1,1/10/95,20,f,253,The sweets offered Tom,Non-sensible,edin_semantics,emo_sem_emo_sem,1.25460299779661,1,1,1,1,1048683.70150463,84,B
37,1,1/10/95,20,f,254,The salt passed Leo,Non-sensible,edin_semantics,emo_sem_emo_sem,1.11329109221697,2,1,1,1,1048685.55974693,118,B
37,1,1/10/95,20,f,255,The garage tidied Erin,Non-sensible,edin_semantics,emo_sem_emo_sem,1.23068710137159,1,2,2,1,1048687.53565784,77,B
37,1,1/10/95,20,f,256,The monitor punched Erin,Non-sensible,edin_semantics,emo_sem_emo_sem,1.19557513087057,1,2,2,1,1048689.4762759,125,B
37,1,1/10/95,20,f,257,Joe wore the jumper,Sensible,edin_semantics,emo_sem_emo_sem,1.14850954222493,2,2,2,1,1048691.36976165,25,B
37,1,1/10/95,20,f,258,The plants watered Luke,Non-sensible,edin_semantics,emo_sem_emo_sem,0.678509208606556,2,2,2,1,1048692.7929209,129,B
37,1,1/10/95,20,f,259,Jon polished the coins,Sensible,edin_semantics,emo_sem_emo_sem,1.86629849951714,1,2,2,1,1048695.40385886,29,B
37,1,1/10/95,20,f,260,Beth wiped the table,Sensible,edin_semantics,emo_sem_emo_sem,1.13725445559248,2,1,1,1,1048697.2856681,40,B
37,1,1/10/95,20,f,261,The message typed Eve,Non-sensible,edin_semantics,emo_sem_emo_sem,1.28959084907547,1,1,1,1,1048699.3203641,124,B
37,1,1/10/95,20,f,262,The rope pulled Emma,Non-sensible,edin_semantics,emo_sem_emo_sem,1.44231820199639,1,1,1,1,1048701.50794845,120,B
37,1,1/10/95,20,f,263,The cream whisked Tom,Non-sensible,edin_semantics,emo_sem_emo_sem,2.18332548625767,2,2,2,1,1048704.43646182,137,B
37,1,1/10/95,20,f,264,The ice crushed Josh,Non-sensible,edin_semantics,emo_sem_emo_sem,8.69951744214632,1,2,2,1,1048713.88071366,81,B
37,1,1/10/95,20,f,265,Will mashed the potatoes,Sensible,edin_semantics,emo_sem_emo_sem,1.32461494137533,1,1,1,1,1048715.95064799,28,B
37,1,1/10/95,20,f,266,The hedge jumped Sara,Non-sensible,edin_semantics,emo_sem_emo_sem,1.08992459205911,1,1,1,1,1048717.78542948,92,B
37,1,1/10/95,20,f,267,Erin posted the card,Sensible,edin_semantics,emo_sem_emo_sem,2.50076331757009,1,1,1,1,1048721.03148846,36,B
37,1,1/10/95,20,f,268,Luke swallowed the pill,Sensible,edin_semantics,emo_sem_emo_sem,6.828180084005,2,1,1,1,1048728.6056964,22,B
37,1,1/10/95,20,f,269,Max kissed the mirror,Sensible,edin_semantics,emo_sem_emo_sem,3.03034668741748,2,2,2,1,1048732.38102989,23,B
37,1,1/10/95,20,f,270,Jen fixed the laptop,Sensible,edin_semantics,emo_sem_emo_sem,1.39588892506436,2,2,2,1,1048734.52156276,37,B
37,1,1/10/95,20,f,271,Ryan carried the gun,Sensible,edin_semantics,emo_sem_emo_sem,1.25403692410327,2,2,2,1,1048736.52097809,75,B
37,1,1/10/95,20,f,272,The box labeled Ian,Non-sensible,edin_semantics,emo_sem_emo_sem,1.31296953675337,2,1,1,1,1048738.57915091,136,B
37,1,1/10/95,20,f,273,The portrait painted Jay,Non-sensible,edin_semantics,emo_sem_emo_sem,1.91301225684583,1,1,1,1,1048741.23719038,110,B
37,1,1/10/95,20,f,274,The debt paid Zoe,Non-sensible,edin_semantics,emo_sem_emo_sem,1.1014224649407,2,1,1,1,1048743.08367469,134,B
37,1,1/10/95,20,f,275,Dan whisked the eggs,Sensible,edin_semantics,emo_sem_emo_sem,1.34806194272824,1,1,1,1,1048745.17715384,62,B
37,1,1/10/95,20,f,276,The gum swallowed Owen,Non-sensible,edin_semantics,emo_sem_emo_sem,1.16021973290481,1,2,2,1,1048747.08250886,97,B
37,1,1/10/95,20,f,277,Liz labeled the jar,Sensible,edin_semantics,emo_sem_emo_sem,1.06665462907404,1,2,2,1,1048748.89371475,61,B
37,1,1/10/95,20,f,278,Phil typed the letter,Sensible,edin_semantics,emo_sem_emo_sem,5.90003232867457,1,2,2,1,1048755.53883683,49,B
37,1,1/10/95,20,f,279,Tim ate the ham,Sensible,edin_semantics,emo_sem_emo_sem,2.55977129982784,1,2,2,1,1048758.84369628,67,B
37,1,1/10/95,20,f,280,Amy measured the thread,Sensible,edin_semantics,emo_sem_emo_sem,1.47780990693718,2,2,2,1,1048761.0665273,51,B
37,1,1/10/95,20,f,281,The invite mailed Ian,Non-sensible,edin_semantics,emo_sem_emo_sem,1.33696433063596,2,2,2,1,1048763.14825649,89,B
37,1,1/10/95,20,f,282,The report wrote Alex,Non-sensible,edin_semantics,emo_sem_emo_sem,1.2074482482858,2,2,2,1,1048765.1006136,149,B
37,1,1/10/95,20,f,283,The stairs climbed Ben,Non-sensible,edin_semantics,emo_sem_emo_sem,1.78361676563509,1,2,2,1,1048767.62929831,143,B
37,1,1/10/95,20,f,284,The fat chewed Adam,Non-sensible,edin_semantics,emo_sem_emo_sem,1.9724467988126,1,1,2,0,1048770.34609464,106,B
37,1,1/10/95,20,f,285,Amy hugged the tree,Sensible,edin_semantics,emo_sem_emo_sem,1.3957429965958,2,2,2,1,1048772.48664868,11,B
37,1,1/10/95,20,f,286,The rope pulled Andy,Non-sensible,edin_semantics,emo_sem_emo_sem,1.56030241493136,1,1,1,1,1048774.79185001,148,B
37,1,1/10/95,20,f,287,Phil sniffed the milk,Sensible,edin_semantics,emo_sem_emo_sem,3.37196885910816,1,1,1,1,1048778.90821586,18,B
37,1,1/10/95,20,f,288,The bowl dented Ian,Non-sensible,edin_semantics,emo_sem_emo_sem,1.00751290586777,2,1,1,1,1048780.66064084,146,B
37,1,1/10/95,20,f,289,Liz sliced the tomato,Sensible,edin_semantics,emo_sem_emo_sem,3.1601713038981,1,2,2,1,1048784.56536918,3,B
37,1,1/10/95,20,f,290,The sugar weighed Liz,Non-sensible,edin_semantics,emo_sem_emo_sem,1.33697844226845,2,2,2,1,1048786.64712018,139,B
37,1,1/10/95,20,f,291,Mike paid the bill,Sensible,edin_semantics,emo_sem_emo_sem,1.66666046599858,1,2,2,1,1048789.05821804,59,B
37,1,1/10/95,20,f,292,The report filed Ian,Non-sensible,edin_semantics,emo_sem_emo_sem,1.23097254359163,2,2,2,1,1048791.03401574,99,B
37,1,1/10/95,20,f,293,The socks knitted Ryan,Non-sensible,edin_semantics,emo_sem_emo_sem,1.9367655471433,1,2,2,1,1048793.71556379,141,B
37,1,1/10/95,20,f,294,The radio fixed Luke,Non-sensible,edin_semantics,emo_sem_emo_sem,0.960828975774348,2,1,1,1,1048795.42092478,112,B
37,1,1/10/95,20,f,295,Matt pushed the trolley,Sensible,edin_semantics,emo_sem_emo_sem,1.21906478819437,1,1,1,1,1048797.38504436,26,B
37,1,1/10/95,20,f,296,Liz scrubbed the bowl,Sensible,edin_semantics,emo_sem_emo_sem,1.07785936212167,2,1,1,1,1048799.20804864,56,B
37,1,1/10/95,20,f,297,The blanket stroked Ryan,Non-sensible,edin_semantics,emo_sem_emo_sem,0.79575255420059,2,1,1,1,1048800.74874405,116,B
37,1,1/10/95,20,f,298,Andy grated the cheese,Sensible,edin_semantics,emo_sem_emo_sem,1.3485680418089,2,2,2,1,1048802.84224694,65,B
37,1,1/10/95,20,f,299,The onion sliced Liam,Non-sensible,edin_semantics,emo_sem_emo_sem,0.890156345441937,2,1,1,1,1048804.47703504,78,B
37,1,1/10/95,20,f,300,The pillow hugged Kate,Non-sensible,edin_semantics,emo_sem_emo_sem,1.58374652988277,1,1,1,1,1048806.80577543,86,B
