subject_column,AssignedList_column,subject_dob_column,subject_age_column,subject_gender_column,trialnum_column,Stim_column,Type_column,Experiment_column,OrderGroup_column,ReactionTime_column,StimSide_column,StimPosition_column,Response_column,Valid_column,TrialEndSecs_column,PairID_column,List_column
39,3,23/7/91,25,m,1,The party cancelled Phil,Non-sensible,edin_semantics,emo_sem_emo_sem,2.08299828623421,2,1,1,1,1224001.54652838,82,B
39,3,23/7/91,25,m,2,The stairs climbed Ben,Non-sensible,edin_semantics,emo_sem_emo_sem,2.54527916898951,1,2,2,1,1224004.83960676,143,B
39,3,23/7/91,25,m,3,Jake dusted the shelf,Sensible,edin_semantics,emo_sem_emo_sem,1.67580552469008,1,2,2,1,1224007.26241161,47,B
39,3,23/7/91,25,m,4,Luke climbed the hill,Sensible,edin_semantics,emo_sem_emo_sem,1.92301877378486,1,1,1,1,1224009.93220521,68,B
39,3,23/7/91,25,m,5,The curtains measured Rob,Non-sensible,edin_semantics,emo_sem_emo_sem,2.01983759948052,1,1,1,1,1224012.69607546,126,B
39,3,23/7/91,25,m,6,Mike paid the bill,Sensible,edin_semantics,emo_sem_emo_sem,1.44355394272134,2,2,2,1,1224014.88367616,59,B
39,3,23/7/91,25,m,7,Matt kicked the bike,Sensible,edin_semantics,emo_sem_emo_sem,2.06679093558341,1,2,2,1,1224017.69458154,39,B
39,3,23/7/91,25,m,8,Rob mailed the parcel,Sensible,edin_semantics,emo_sem_emo_sem,2.47883653710596,2,1,1,1,1224020.91714668,14,B
39,3,23/7/91,25,m,9,The steak ate Mike,Non-sensible,edin_semantics,emo_sem_emo_sem,2.38427976169623,2,1,1,1,1224024.0456108,142,B
39,3,23/7/91,25,m,10,Eve taught the lesson,Sensible,edin_semantics,emo_sem_emo_sem,2.11351720080711,2,2,2,1,1224026.90358881,15,B
39,3,23/7/91,25,m,11,Jack mixed the fruits,Sensible,edin_semantics,emo_sem_emo_sem,2.05531423026696,1,1,1,1,1224029.70273588,8,B
39,3,23/7/91,25,m,12,The shoes counted Lucy,Non-sensible,edin_semantics,emo_sem_emo_sem,1.77301017846912,1,2,2,1,1224032.21967191,123,B
39,3,23/7/91,25,m,13,Max lent the bucket,Sensible,edin_semantics,emo_sem_emo_sem,1.87828707671724,1,2,2,1,1224034.84236817,19,B
39,3,23/7/91,25,m,14,The bed sold Jay,Non-sensible,edin_semantics,emo_sem_emo_sem,1.7141731409356,1,2,2,1,1224037.30048512,113,B
39,3,23/7/91,25,m,15,The candy sucked Sam,Non-sensible,edin_semantics,emo_sem_emo_sem,1.6553303305991,1,2,2,1,1224039.69976632,87,B
39,3,23/7/91,25,m,16,The debt paid Zoe,Non-sensible,edin_semantics,emo_sem_emo_sem,1.56144322198816,2,1,1,1,1224042.00494681,134,B
39,3,23/7/91,25,m,17,Tom dialed the number,Sensible,edin_semantics,emo_sem_emo_sem,1.64383534388617,1,2,2,1,1224044.39247356,63,B
39,3,23/7/91,25,m,18,Kate built the house,Sensible,edin_semantics,emo_sem_emo_sem,1.83208198426291,1,1,1,1,1224046.96816228,46,B
39,3,23/7/91,25,m,19,The portrait painted Jay,Non-sensible,edin_semantics,emo_sem_emo_sem,1.61992906918749,1,1,1,1,1224049.33216762,110,B
39,3,23/7/91,25,m,20,The rope pulled Andy,Non-sensible,edin_semantics,emo_sem_emo_sem,2.0317039815709,2,1,1,1,1224052.10782567,148,B
39,3,23/7/91,25,m,21,Jane punched the wall,Sensible,edin_semantics,emo_sem_emo_sem,2.14909967011772,2,1,1,1,1224055.00108179,50,B
39,3,23/7/91,25,m,22,Luke swallowed the pill,Sensible,edin_semantics,emo_sem_emo_sem,1.53746157744899,1,1,1,1,1224057.28276878,22,B
39,3,23/7/91,25,m,23,The sugar weighed Liz,Non-sensible,edin_semantics,emo_sem_emo_sem,1.58489086478949,2,2,2,1,1224059.6114463,139,B
39,3,23/7/91,25,m,24,The donut iced Joe,Non-sensible,edin_semantics,emo_sem_emo_sem,1.5258360572625,2,2,2,1,1224061.88134355,119,B
39,3,23/7/91,25,m,25,Jen fixed the laptop,Sensible,edin_semantics,emo_sem_emo_sem,1.737475176109,2,2,2,1,1224064.36298128,37,B
39,3,23/7/91,25,m,26,The carrots chopped Fred,Non-sensible,edin_semantics,emo_sem_emo_sem,2.24332257406786,1,1,1,1,1224067.35029962,102,B
39,3,23/7/91,25,m,27,Phil chopped the herbs,Sensible,edin_semantics,emo_sem_emo_sem,1.73763681971468,1,2,2,1,1224069.83192515,27,B
39,3,23/7/91,25,m,28,The cream whisked Tom,Non-sensible,edin_semantics,emo_sem_emo_sem,2.10200168821029,2,2,2,1,1224072.67810638,137,B
39,3,23/7/91,25,m,29,The onion sliced Liam,Non-sensible,edin_semantics,emo_sem_emo_sem,1.65525560243987,1,1,1,1,1224075.07742029,78,B
39,3,23/7/91,25,m,30,The bowl dented Ian,Non-sensible,edin_semantics,emo_sem_emo_sem,2.50189001299441,2,1,1,1,1224078.32346195,146,B
39,3,23/7/91,25,m,31,The radio fixed Luke,Non-sensible,edin_semantics,emo_sem_emo_sem,1.72617550916038,2,1,1,1,1224080.79331731,112,B
39,3,23/7/91,25,m,32,The internet searched Max,Non-sensible,edin_semantics,emo_sem_emo_sem,1.80777576938272,1,2,2,1,1224083.34556192,85,B
39,3,23/7/91,25,m,33,Jen searched the room,Sensible,edin_semantics,emo_sem_emo_sem,1.76106682303362,1,1,1,1,1224085.85062387,10,B
39,3,23/7/91,25,m,34,Beth wiped the table,Sensible,edin_semantics,emo_sem_emo_sem,1.74915008735843,1,1,1,1,1224088.34400096,40,B
39,3,23/7/91,25,m,35,The hair trimmed Bill,Non-sensible,edin_semantics,emo_sem_emo_sem,1.5728368605487,1,2,2,1,1224090.66096509,107,B
39,3,23/7/91,25,m,36,Beth took the photo,Sensible,edin_semantics,emo_sem_emo_sem,1.9259322094731,2,2,2,1,1224093.3307465,53,B
39,3,23/7/91,25,m,37,The carrots grated Tom,Non-sensible,edin_semantics,emo_sem_emo_sem,1.64352841326036,1,1,1,1,1224095.71827132,140,B
39,3,23/7/91,25,m,38,Jon cut the paper,Sensible,edin_semantics,emo_sem_emo_sem,1.62006665882654,1,1,1,1,1224098.08225485,20,B
39,3,23/7/91,25,m,39,Rob stroked the fur,Sensible,edin_semantics,emo_sem_emo_sem,1.71376582444645,2,2,2,1,1224100.54040163,41,B
39,3,23/7/91,25,m,40,The hotline dialed Hugh,Non-sensible,edin_semantics,emo_sem_emo_sem,2.5021594192367,1,1,1,1,1224103.78646413,138,B
39,3,23/7/91,25,m,41,The radio got Ben,Non-sensible,edin_semantics,emo_sem_emo_sem,2.13767652516253,2,1,1,1,1224106.66792186,88,B
39,3,23/7/91,25,m,42,Josh squeezed the ball,Sensible,edin_semantics,emo_sem_emo_sem,1.74905964382924,2,2,2,1,1224109.16128549,1,B
39,3,23/7/91,25,m,43,Joe wore the jumper,Sensible,edin_semantics,emo_sem_emo_sem,1.69026558334008,1,2,2,1,1224111.59586115,25,B
39,3,23/7/91,25,m,44,Kate served the dish,Sensible,edin_semantics,emo_sem_emo_sem,1.88998892880045,1,1,1,1,1224114.23039204,70,B
39,3,23/7/91,25,m,45,The hospital visited Tom,Non-sensible,edin_semantics,emo_sem_emo_sem,1.73796491813846,2,2,2,1,1224116.71200121,91,B
39,3,23/7/91,25,m,46,The ticket took Tim,Non-sensible,edin_semantics,emo_sem_emo_sem,1.82003567717038,2,1,1,1,1224119.27593676,128,B
39,3,23/7/91,25,m,47,Phil sniffed the milk,Sensible,edin_semantics,emo_sem_emo_sem,6.50073798070662,1,1,1,1,1224126.52080137,18,B
39,3,23/7/91,25,m,48,The blanket stroked Ryan,Non-sensible,edin_semantics,emo_sem_emo_sem,2.20756467035972,2,1,1,1,1224129.47284449,116,B
39,3,23/7/91,25,m,49,The monitor punched Erin,Non-sensible,edin_semantics,emo_sem_emo_sem,1.91362226940691,2,2,2,1,1224132.13088075,125,B
39,3,23/7/91,25,m,50,Tim ate the ham,Sensible,edin_semantics,emo_sem_emo_sem,1.87810202036053,1,2,2,1,1224134.75362383,67,B
39,3,23/7/91,25,m,51,Ben chewed the toffee,Sensible,edin_semantics,emo_sem_emo_sem,1.4314479813911,1,2,2,1,1224136.92946336,31,B
39,3,23/7/91,25,m,52,Carl sold the sofa,Sensible,edin_semantics,emo_sem_emo_sem,2.38378135999665,2,1,1,1,1224140.05793998,38,B
39,3,23/7/91,25,m,53,The kettle carried John,Non-sensible,edin_semantics,emo_sem_emo_sem,1.61918852268718,2,2,2,1,1224142.42194981,105,B
39,3,23/7/91,25,m,54,Hugh pulled the lever,Sensible,edin_semantics,emo_sem_emo_sem,1.88992670876905,2,2,2,1,1224145.05643034,45,B
39,3,23/7/91,25,m,55,The sweets offered Tom,Non-sensible,edin_semantics,emo_sem_emo_sem,1.77237033867277,2,1,1,1,1224147.5733064,84,B
39,3,23/7/91,25,m,56,The pillow hugged Kate,Non-sensible,edin_semantics,emo_sem_emo_sem,1.77224429487251,2,1,1,1,1224150.0902373,86,B
39,3,23/7/91,25,m,57,Jeff watered the garden,Sensible,edin_semantics,emo_sem_emo_sem,1.7490753591992,1,1,1,1,1224152.58358296,54,B
39,3,23/7/91,25,m,58,The pot scrubbed Josh,Non-sensible,edin_semantics,emo_sem_emo_sem,1.7019263827242,1,2,2,1,1224155.029898,131,B
39,3,23/7/91,25,m,59,Jon polished the coins,Sensible,edin_semantics,emo_sem_emo_sem,1.77272569830529,2,2,2,1,1224157.54680709,29,B
39,3,23/7/91,25,m,60,The poster read Luke,Non-sensible,edin_semantics,emo_sem_emo_sem,2.07818649848923,2,2,2,1,1224160.36950283,79,B
39,3,23/7/91,25,m,61,The dessert served Fred,Non-sensible,edin_semantics,emo_sem_emo_sem,1.59622292453423,2,2,2,1,1224162.7099874,145,B
39,3,23/7/91,25,m,62,Lily got the kettle,Sensible,edin_semantics,emo_sem_emo_sem,1.70224518026225,1,2,2,1,1224165.15627518,13,B
39,3,23/7/91,25,m,63,Kate lifted the box,Sensible,edin_semantics,emo_sem_emo_sem,1.65507728117518,2,2,2,1,1224167.55556536,69,B
39,3,23/7/91,25,m,64,The hair brushed Dan,Non-sensible,edin_semantics,emo_sem_emo_sem,1.51387121342123,2,2,2,1,1224169.81370655,147,B
39,3,23/7/91,25,m,65,The perfume sniffed Tim,Non-sensible,edin_semantics,emo_sem_emo_sem,2.00854178098962,2,2,2,1,1224172.56586052,93,B
39,3,23/7/91,25,m,66,Jon trimmed the bushes,Sensible,edin_semantics,emo_sem_emo_sem,1.4318366961088,2,1,1,1,1224174.74164263,32,B
39,3,23/7/91,25,m,67,Jon jumped the fence,Sensible,edin_semantics,emo_sem_emo_sem,1.42010405496694,2,2,2,1,1224176.90568986,17,B
39,3,23/7/91,25,m,68,The rules taught Josh,Non-sensible,edin_semantics,emo_sem_emo_sem,1.27882999461144,1,1,1,1,1224178.92861986,90,B
39,3,23/7/91,25,m,69,Erin crushed the garlic,Sensible,edin_semantics,emo_sem_emo_sem,1.54884976358153,2,1,1,1,1224181.22205873,6,B
39,3,23/7/91,25,m,70,Will licked the spoon,Sensible,edin_semantics,emo_sem_emo_sem,1.36108741327189,2,2,2,1,1224183.32736802,21,B
39,3,23/7/91,25,m,71,Dan carried the folder,Sensible,edin_semantics,emo_sem_emo_sem,1.267121728044,2,1,1,1,1224185.3384698,30,B
39,3,23/7/91,25,m,72,The plants watered Luke,Non-sensible,edin_semantics,emo_sem_emo_sem,1.39619938377291,2,2,2,1,1224187.47905206,129,B
39,3,23/7/91,25,m,73,Mary iced the cake,Sensible,edin_semantics,emo_sem_emo_sem,1.30277475598268,2,1,1,1,1224189.52546338,44,B
39,3,23/7/91,25,m,74,The ice crushed Josh,Non-sensible,edin_semantics,emo_sem_emo_sem,1.2904580803588,2,2,2,1,1224191.5601273,81,B
39,3,23/7/91,25,m,75,The turnip mashed Ella,Non-sensible,edin_semantics,emo_sem_emo_sem,1.73791199899279,2,2,2,1,1224194.04176983,103,B
39,3,23/7/91,25,m,76,Matt drank the juice,Sensible,edin_semantics,emo_sem_emo_sem,1.40793459070846,2,1,1,1,1224196.19403791,60,B
39,3,23/7/91,25,m,77,The button pushed Ian,Non-sensible,edin_semantics,emo_sem_emo_sem,1.46743905008771,1,2,2,1,1224198.40513918,101,B
39,3,23/7/91,25,m,78,Bill counted the sheets,Sensible,edin_semantics,emo_sem_emo_sem,1.30240143579431,2,1,1,1,1224200.45161015,48,B
39,3,23/7/91,25,m,79,The pan washed Beth,Non-sensible,edin_semantics,emo_sem_emo_sem,1.37280433927663,2,1,1,1,1224202.56860911,132,B
39,3,23/7/91,25,m,80,The beer drank Jack,Non-sensible,edin_semantics,emo_sem_emo_sem,1.45538568706252,1,2,2,1,1224204.76795143,135,B
39,3,23/7/91,25,m,81,The dress wore Kate,Non-sensible,edin_semantics,emo_sem_emo_sem,1.25499973050319,2,1,1,1,1224206.7673581,100,B
39,3,23/7/91,25,m,82,Mark washed the dishes,Sensible,edin_semantics,emo_sem_emo_sem,1.27893936051987,1,2,2,1,1224208.79027495,57,B
39,3,23/7/91,25,m,83,Andy grated the cheese,Sensible,edin_semantics,emo_sem_emo_sem,1.26695078331977,1,2,2,1,1224210.80147519,65,B
39,3,23/7/91,25,m,84,The salt passed Leo,Non-sensible,edin_semantics,emo_sem_emo_sem,1.85537279420532,2,1,1,1,1224213.40066864,118,B
39,3,23/7/91,25,m,85,Ian cancelled the plans,Sensible,edin_semantics,emo_sem_emo_sem,1.31375947408378,2,2,2,1,1224215.45885301,7,B
39,3,23/7/91,25,m,86,Tom knitted the scarf,Sensible,edin_semantics,emo_sem_emo_sem,1.25527106132358,1,1,1,1,1224217.45828116,66,B
39,3,23/7/91,25,m,87,The house dusted Alex,Non-sensible,edin_semantics,emo_sem_emo_sem,1.45533244730905,1,1,1,1,1224219.65761194,122,B
39,3,23/7/91,25,m,88,The bath cleaned Jack,Non-sensible,edin_semantics,emo_sem_emo_sem,1.43150025908835,2,1,1,1,1224221.8334396,80,B
39,3,23/7/91,25,m,89,The fat chewed Adam,Non-sensible,edin_semantics,emo_sem_emo_sem,1.54962751385756,1,1,1,1,1224224.12686628,106,B
39,3,23/7/91,25,m,90,Phil passed the towels,Sensible,edin_semantics,emo_sem_emo_sem,1.03193105268292,1,2,2,1,1224225.90278989,43,B
39,3,23/7/91,25,m,91,The crate lifted Amy,Non-sensible,edin_semantics,emo_sem_emo_sem,1.33800218603574,2,1,1,1,1224227.98452037,144,B
39,3,23/7/91,25,m,92,Matt offered the money,Sensible,edin_semantics,emo_sem_emo_sem,1.52583060506731,2,2,2,1,1224230.25449908,9,B
39,3,23/7/91,25,m,93,Jen weighed the flour,Sensible,edin_semantics,emo_sem_emo_sem,1.56072223954834,2,1,1,1,1224232.55961928,64,B
39,3,23/7/91,25,m,94,Liz labeled the jar,Sensible,edin_semantics,emo_sem_emo_sem,1.33760224608704,2,2,2,1,1224234.64135456,61,B
39,3,23/7/91,25,m,95,Ryan carried the gun,Sensible,edin_semantics,emo_sem_emo_sem,1.34945836523548,2,2,2,1,1224236.73488535,75,B
39,3,23/7/91,25,m,96,Mary visited the museum,Sensible,edin_semantics,emo_sem_emo_sem,1.40830726944841,1,1,1,1,1224238.88717075,16,B
39,3,23/7/91,25,m,97,The ribbon cut Lucy,Non-sensible,edin_semantics,emo_sem_emo_sem,1.34923129412346,1,2,2,1,1224240.98062777,95,B
39,3,23/7/91,25,m,98,The hedge jumped Sara,Non-sensible,edin_semantics,emo_sem_emo_sem,1.2672779194545,2,1,1,1,1224242.99180235,92,B
39,3,23/7/91,25,m,99,Amy measured the thread,Sensible,edin_semantics,emo_sem_emo_sem,1.24345567356795,1,2,2,1,1224244.97944238,51,B
39,3,23/7/91,25,m,100,Tim cleaned the floor,Sensible,edin_semantics,emo_sem_emo_sem,1.25562898651697,1,2,2,1,1224246.97883974,5,B
39,3,23/7/91,25,m,101,John described the pen,Sensible,edin_semantics,emo_sem_emo_sem,1.33764842990786,2,1,1,1,1224249.06057791,42,B
39,3,23/7/91,25,m,102,The garage tidied Erin,Non-sensible,edin_semantics,emo_sem_emo_sem,1.11404671240598,1,2,2,1,1224250.9188356,77,B
39,3,23/7/91,25,m,103,Leah sucked the lolly,Sensible,edin_semantics,emo_sem_emo_sem,1.49056853703223,1,1,1,1,1224253.15346277,12,B
39,3,23/7/91,25,m,104,The gift posted Jack,Non-sensible,edin_semantics,emo_sem_emo_sem,2.4548225000035,2,2,2,1,1224256.35247123,111,B
39,3,23/7/91,25,m,105,Matt pushed the trolley,Sensible,edin_semantics,emo_sem_emo_sem,2.61949320835993,1,1,1,1,1224259.71619401,26,B
39,3,23/7/91,25,m,106,The report filed Ian,Non-sensible,edin_semantics,emo_sem_emo_sem,1.60802227607928,2,2,2,1,1224262.06842373,99,B
39,3,23/7/91,25,m,107,Liz sliced the tomato,Sensible,edin_semantics,emo_sem_emo_sem,1.4194270116277,1,2,2,1,1224264.23249309,3,B
39,3,23/7/91,25,m,108,The door kicked Max,Non-sensible,edin_semantics,emo_sem_emo_sem,1.49028950906359,1,1,1,1,1224266.46710486,114,B
39,3,23/7/91,25,m,109,The car lent Fred,Non-sensible,edin_semantics,emo_sem_emo_sem,1.52555414312519,2,1,1,1,1224268.73702585,94,B
39,3,23/7/91,25,m,110,The wallet carried Leo,Non-sensible,edin_semantics,emo_sem_emo_sem,1.33578792330809,1,1,1,1,1224270.81878069,150,B
39,3,23/7/91,25,m,111,The socks knitted Ryan,Non-sensible,edin_semantics,emo_sem_emo_sem,1.48974973428994,1,2,2,1,1224273.05342229,141,B
39,3,23/7/91,25,m,112,The office entered Joe,Non-sensible,edin_semantics,emo_sem_emo_sem,1.59584158658981,2,2,2,1,1224275.3938517,133,B
39,3,23/7/91,25,m,113,Carl brushed the teeth,Sensible,edin_semantics,emo_sem_emo_sem,1.64321474754252,1,1,1,1,1224277.78139833,72,B
39,3,23/7/91,25,m,114,Erin posted the card,Sensible,edin_semantics,emo_sem_emo_sem,1.79603061988018,2,1,1,1,1224280.32182883,36,B
39,3,23/7/91,25,m,115,The opera watched Adam,Non-sensible,edin_semantics,emo_sem_emo_sem,1.5134244482033,1,1,1,1,1224282.57994983,108,B
39,3,23/7/91,25,m,116,Sean read the book,Sensible,edin_semantics,emo_sem_emo_sem,1.53716426854953,1,1,1,1,1224284.86161949,4,B
39,3,23/7/91,25,m,117,The message typed Eve,Non-sensible,edin_semantics,emo_sem_emo_sem,1.85439298930578,2,1,1,1,1224287.46083603,124,B
39,3,23/7/91,25,m,118,Ewan wrote the story,Sensible,edin_semantics,emo_sem_emo_sem,1.51330449827947,1,1,1,1,1224289.7189814,74,B
39,3,23/7/91,25,m,119,Liz scrubbed the bowl,Sensible,edin_semantics,emo_sem_emo_sem,1.44263539579697,2,1,1,1,1224291.90654939,56,B
39,3,23/7/91,25,m,120,The trophy polished Anna,Non-sensible,edin_semantics,emo_sem_emo_sem,1.56064013484865,2,1,1,1,1224294.21175137,104,B
39,3,23/7/91,25,m,121,The problem solved Phil,Non-sensible,edin_semantics,emo_sem_emo_sem,1.64302904973738,1,2,2,1,1224296.59929255,109,B
39,3,23/7/91,25,m,122,The desk wiped Lucy,Non-sensible,edin_semantics,emo_sem_emo_sem,1.40795094752684,1,2,2,1,1224298.75157667,115,B
39,3,23/7/91,25,m,123,Sam tidied the room,Sensible,edin_semantics,emo_sem_emo_sem,1.68964017578401,2,1,1,1,1224301.18613597,2,B
39,3,23/7/91,25,m,124,The trousers ironed Eve,Non-sensible,edin_semantics,emo_sem_emo_sem,1.29015179118142,1,1,1,1,1224303.22081368,130,B
39,3,23/7/91,25,m,125,Lara filed the papers,Sensible,edin_semantics,emo_sem_emo_sem,1.30137063609436,1,1,1,1,1224305.26745913,24,B
39,3,23/7/91,25,m,126,Dan whisked the eggs,Sensible,edin_semantics,emo_sem_emo_sem,2.06570240622386,1,1,1,1,1224308.07818489,62,B
39,3,23/7/91,25,m,127,Amy hugged the tree,Sensible,edin_semantics,emo_sem_emo_sem,1.7603031846229,2,2,2,1,1224310.58329912,11,B
39,3,23/7/91,25,m,128,Leo stored the wine,Sensible,edin_semantics,emo_sem_emo_sem,1.74882872425951,2,1,1,1,1224313.07670733,52,B
39,3,23/7/91,25,m,129,The nuts mixed Liam,Non-sensible,edin_semantics,emo_sem_emo_sem,1.71360257687047,2,2,2,1,1224315.53480055,83,B
39,3,23/7/91,25,m,130,The rose kissed Hugh,Non-sensible,edin_semantics,emo_sem_emo_sem,1.58393896277994,1,1,1,1,1224317.86347422,98,B
39,3,23/7/91,25,m,131,Ryan painted the picture,Sensible,edin_semantics,emo_sem_emo_sem,1.61954580666497,2,2,2,1,1224320.22749143,35,B
39,3,23/7/91,25,m,132,The plate licked Jane,Non-sensible,edin_semantics,emo_sem_emo_sem,1.40718634705991,1,1,1,1,1224322.37979928,96,B
39,3,23/7/91,25,m,133,Lily dented the lorry,Sensible,edin_semantics,emo_sem_emo_sem,1.84266163106076,2,2,2,1,1224324.96724886,71,B
39,3,23/7/91,25,m,134,Max kissed the mirror,Sensible,edin_semantics,emo_sem_emo_sem,1.431121166097,1,2,2,1,1224327.14305086,23,B
39,3,23/7/91,25,m,135,The church described Erin,Non-sensible,edin_semantics,emo_sem_emo_sem,1.45372338662855,1,2,2,1,1224329.3423996,117,B
39,3,23/7/91,25,m,136,Phil typed the letter,Sensible,edin_semantics,emo_sem_emo_sem,1.64396748133004,1,2,2,1,1224331.72994495,49,B
39,3,23/7/91,25,m,137,Joe solved the puzzle,Sensible,edin_semantics,emo_sem_emo_sem,1.37165711773559,2,1,1,1,1224333.84695866,34,B
39,3,23/7/91,25,m,138,Will mashed the potatoes,Sensible,edin_semantics,emo_sem_emo_sem,1.32577884057537,1,1,1,1,1224335.9169581,28,B
39,3,23/7/91,25,m,139,The rope pulled Emma,Non-sensible,edin_semantics,emo_sem_emo_sem,1.38385801273398,2,1,1,1,1224338.04568103,120,B
39,3,23/7/91,25,m,140,The invite mailed Ian,Non-sensible,edin_semantics,emo_sem_emo_sem,1.73644630098715,1,2,2,1,1224340.52731555,89,B
39,3,23/7/91,25,m,141,The lemon squeezed Jay,Non-sensible,edin_semantics,emo_sem_emo_sem,1.52491815178655,1,1,1,1,1224342.79718939,76,B
39,3,23/7/91,25,m,142,Tim pulled the handle,Sensible,edin_semantics,emo_sem_emo_sem,1.9844674479682,2,2,2,1,1224345.52579917,73,B
39,3,23/7/91,25,m,143,The report wrote Alex,Non-sensible,edin_semantics,emo_sem_emo_sem,1.63101898413152,1,2,2,1,1224347.90160226,149,B
39,3,23/7/91,25,m,144,Ryan entered the room,Sensible,edin_semantics,emo_sem_emo_sem,1.56028445437551,1,1,1,1,1224350.20672117,58,B
39,3,23/7/91,25,m,145,The shed built Rose,Non-sensible,edin_semantics,emo_sem_emo_sem,1.64283501310274,2,2,2,1,1224352.59428063,121,B
39,3,23/7/91,25,m,146,Josh ironed the shirt,Sensible,edin_semantics,emo_sem_emo_sem,1.48996750451624,1,2,2,1,1224354.8288783,55,B
39,3,23/7/91,25,m,147,The rice stored Fred,Non-sensible,edin_semantics,emo_sem_emo_sem,1.41938050673343,1,2,2,1,1224356.99299993,127,B
39,3,23/7/91,25,m,148,The box labeled Ian,Non-sensible,edin_semantics,emo_sem_emo_sem,1.37288900977001,1,1,1,1,1224359.11009542,136,B
39,3,23/7/91,25,m,149,The gum swallowed Owen,Non-sensible,edin_semantics,emo_sem_emo_sem,1.39618623419665,2,2,2,1,1224361.25089032,97,B
39,3,23/7/91,25,m,150,Ella watched the movie,Sensible,edin_semantics,emo_sem_emo_sem,1.51285099773668,2,2,2,1,1224363.50868546,33,B
39,3,23/7/91,25,m,24,Jay sold the bed,Sensible,edin_semantics,emo_sem_emo_sem,2.95279682171531,1,1,1,1,1224397.71015995,113,A
39,3,23/7/91,25,m,25,The dish served Kate,Non-sensible,edin_semantics,emo_sem_emo_sem,2.96881366334856,2,2,2,1,1224401.42669072,70,A
39,3,23/7/91,25,m,26,Lucy cut the ribbon,Sensible,edin_semantics,emo_sem_emo_sem,1.73673879913986,2,1,1,1,1224403.90833966,95,A
39,3,23/7/91,25,m,27,The book read Sean,Non-sensible,edin_semantics,emo_sem_emo_sem,1.84260807046667,1,2,2,1,1224406.49576134,4,A
39,3,23/7/91,25,m,28,Fred chopped the carrots,Sensible,edin_semantics,emo_sem_emo_sem,1.73661660426296,2,2,2,1,1224408.97736699,102,A
39,3,23/7/91,25,m,29,Luke fixed the radio,Sensible,edin_semantics,emo_sem_emo_sem,1.93689255299978,2,2,2,1,1224411.65896122,112,A
39,3,23/7/91,25,m,30,The kettle got Lily,Non-sensible,edin_semantics,emo_sem_emo_sem,1.47769861645065,2,1,1,1,1224413.88184645,13,A
39,3,23/7/91,25,m,31,The room entered Ryan,Non-sensible,edin_semantics,emo_sem_emo_sem,1.38415147317573,2,2,2,1,1224416.01055399,58,A
39,3,23/7/91,25,m,32,The fruits mixed Jack,Non-sensible,edin_semantics,emo_sem_emo_sem,1.54806720279157,2,2,2,1,1224418.30399446,8,A
39,3,23/7/91,25,m,33,The box lifted Kate,Non-sensible,edin_semantics,emo_sem_emo_sem,2.41869159648195,2,1,1,1,1224421.46775721,69,A
39,3,23/7/91,25,m,34,The lesson taught Eve,Non-sensible,edin_semantics,emo_sem_emo_sem,1.43122989055701,2,1,1,1,1224423.64357684,15,A
39,3,23/7/91,25,m,35,The lorry dented Lily,Non-sensible,edin_semantics,emo_sem_emo_sem,1.63042917707935,2,1,1,1,1224426.01933824,71,A
39,3,23/7/91,25,m,36,Joe entered the office,Sensible,edin_semantics,emo_sem_emo_sem,2.81890513305552,2,1,1,1,1224429.58301625,133,A
39,3,23/7/91,25,m,37,The fence jumped Jon,Non-sensible,edin_semantics,emo_sem_emo_sem,1.51329904608428,2,1,1,1,1224431.84112088,17,A
39,3,23/7/91,25,m,38,The lever pulled Hugh,Non-sensible,edin_semantics,emo_sem_emo_sem,2.15994583652355,2,1,1,1,1224434.74613145,45,A
39,3,23/7/91,25,m,39,Ryan knitted the socks,Sensible,edin_semantics,emo_sem_emo_sem,1.3132774294354,1,1,1,1,1224436.80432031,141,A
39,3,23/7/91,25,m,40,The gun carried Ryan,Non-sensible,edin_semantics,emo_sem_emo_sem,1.20758968661539,1,1,1,1,1224438.75667711,75,A
39,3,23/7/91,25,m,41,Max searched the internet,Sensible,edin_semantics,emo_sem_emo_sem,2.32493534241803,2,1,1,1,1224441.8263571,85,A
39,3,23/7/91,25,m,42,The bucket lent Max,Non-sensible,edin_semantics,emo_sem_emo_sem,1.33670069719665,2,1,1,1,1224443.90810457,19,A
39,3,23/7/91,25,m,43,Tom grated the carrots,Sensible,edin_semantics,emo_sem_emo_sem,1.8424929312896,2,2,2,1,1224446.49554165,140,A
39,3,23/7/91,25,m,44,The teeth brushed Carl,Non-sensible,edin_semantics,emo_sem_emo_sem,1.3134935956914,1,2,2,1,1224448.55377637,72,A
39,3,23/7/91,25,m,45,Leo passed the salt,Sensible,edin_semantics,emo_sem_emo_sem,1.50172227551229,1,2,2,1,1224450.80014035,118,A
39,3,23/7/91,25,m,46,Joe iced the donut,Sensible,edin_semantics,emo_sem_emo_sem,1.87809688854031,1,1,1,1,1224453.4228985,119,A
39,3,23/7/91,25,m,47,Liam sliced the onion,Sensible,edin_semantics,emo_sem_emo_sem,1.37245346978307,1,2,2,1,1224455.53989489,78,A
39,3,23/7/91,25,m,48,Dan brushed the hair,Sensible,edin_semantics,emo_sem_emo_sem,1.87815622240305,2,1,1,1,1224458.16264663,147,A
39,3,23/7/91,25,m,49,The milk sniffed Phil,Non-sensible,edin_semantics,emo_sem_emo_sem,1.43053552811034,2,2,2,1,1224460.33845088,18,A
39,3,23/7/91,25,m,50,The money offered Matt,Non-sensible,edin_semantics,emo_sem_emo_sem,1.27793229441158,1,1,1,1,1224462.36139338,9,A
39,3,23/7/91,25,m,51,The number dialed Tom,Non-sensible,edin_semantics,emo_sem_emo_sem,2.11280712322332,2,1,1,1,1224465.21936498,63,A
39,3,23/7/91,25,m,52,The eggs whisked Dan,Non-sensible,edin_semantics,emo_sem_emo_sem,1.7834002787713,1,2,2,1,1224467.74800222,62,A
39,3,23/7/91,25,m,53,The handle pulled Tim,Non-sensible,edin_semantics,emo_sem_emo_sem,2.33609870285727,2,1,1,1,1224470.82943763,73,A
39,3,23/7/91,25,m,54,Mike ate the steak,Sensible,edin_semantics,emo_sem_emo_sem,1.72498402814381,2,2,2,1,1224473.29929204,142,A
39,3,23/7/91,25,m,55,Hugh dialed the hotline,Sensible,edin_semantics,emo_sem_emo_sem,1.47807546448894,2,2,2,1,1224475.52216091,138,A
39,3,23/7/91,25,m,56,The tree hugged Amy,Non-sensible,edin_semantics,emo_sem_emo_sem,1.43079691636376,1,1,1,1,1224477.69798375,11,A
39,3,23/7/91,25,m,57,The cake iced Mary,Non-sensible,edin_semantics,emo_sem_emo_sem,1.40768122067675,1,2,2,1,1224479.85026819,44,A
39,3,23/7/91,25,m,58,Phil cancelled the party,Sensible,edin_semantics,emo_sem_emo_sem,1.54882410587743,2,2,2,1,1224482.1437093,82,A
39,3,23/7/91,25,m,59,The room searched Jen,Non-sensible,edin_semantics,emo_sem_emo_sem,1.61930622742511,2,2,2,1,1224484.50770341,10,A
39,3,23/7/91,25,m,60,Kate hugged the pillow,Sensible,edin_semantics,emo_sem_emo_sem,1.59583132364787,1,2,2,1,1224486.84817323,86,A
39,3,23/7/91,25,m,61,Tom visited the hospital,Sensible,edin_semantics,emo_sem_emo_sem,1.80768917454407,2,1,1,1,1224489.4003755,91,A
39,3,23/7/91,25,m,62,The card posted Erin,Non-sensible,edin_semantics,emo_sem_emo_sem,1.86631261114962,2,2,2,1,1224492.01132532,36,A
39,3,23/7/91,25,m,63,Andy pulled the rope,Sensible,edin_semantics,emo_sem_emo_sem,2.05498965992592,2,2,2,1,1224494.81048491,148,A
39,3,23/7/91,25,m,64,Kate wore the dress,Sensible,edin_semantics,emo_sem_emo_sem,1.91323323384859,2,2,2,1,1224497.46852822,100,A
39,3,23/7/91,25,m,65,Anna polished the trophy,Sensible,edin_semantics,emo_sem_emo_sem,1.52488126885146,1,2,2,1,1224499.73845242,104,A
39,3,23/7/91,25,m,66,Jay squeezed the lemon,Sensible,edin_semantics,emo_sem_emo_sem,1.70140649285167,1,2,2,1,1224502.18474468,76,A
39,3,23/7/91,25,m,67,The sofa sold Carl,Non-sensible,edin_semantics,emo_sem_emo_sem,1.5959580084309,2,2,2,1,1224504.52524593,38,A
39,3,23/7/91,25,m,68,The spoon licked Will,Non-sensible,edin_semantics,emo_sem_emo_sem,1.5132939144969,2,1,1,1,1224506.7833852,21,A
39,3,23/7/91,25,m,69,The story wrote Ewan,Non-sensible,edin_semantics,emo_sem_emo_sem,1.3602217854932,2,2,2,1,1224508.88866691,74,A
39,3,23/7/91,25,m,70,The pill swallowed Luke,Non-sensible,edin_semantics,emo_sem_emo_sem,1.50163503922522,1,2,2,1,1224511.13501165,22,A
39,3,23/7/91,25,m,71,Lucy counted the shoes,Sensible,edin_semantics,emo_sem_emo_sem,2.5366812616121,2,1,1,1,1224514.41638529,123,A
39,3,23/7/91,25,m,72,Adam chewed the fat,Sensible,edin_semantics,emo_sem_emo_sem,1.56020202883519,2,2,2,1,1224516.72155776,106,A
39,3,23/7/91,25,m,73,The bill paid Mike,Non-sensible,edin_semantics,emo_sem_emo_sem,1.85460594831966,2,1,1,1,1224519.32078617,59,A
39,3,23/7/91,25,m,74,The potatoes mashed Will,Non-sensible,edin_semantics,emo_sem_emo_sem,1.6307829329744,2,2,2,1,1224521.69657161,28,A
39,3,23/7/91,25,m,75,Jack drank the beer,Sensible,edin_semantics,emo_sem_emo_sem,1.87826783349738,1,1,1,1,1224524.31930411,135,A
39,3,23/7/91,25,m,76,Jay painted the portrait,Sensible,edin_semantics,emo_sem_emo_sem,1.49019361333922,2,2,2,1,1224526.55394892,110,A
39,3,23/7/91,25,m,77,Liz weighed the sugar,Sensible,edin_semantics,emo_sem_emo_sem,1.72518415842205,2,1,1,1,1224529.02380878,139,A
39,3,23/7/91,25,m,78,The pen described John,Non-sensible,edin_semantics,emo_sem_emo_sem,1.43110994086601,2,2,2,1,1224531.19959089,42,A
39,3,23/7/91,25,m,79,Lucy wiped the desk,Sensible,edin_semantics,emo_sem_emo_sem,1.69003081484698,2,1,1,1,1224533.63415147,115,A
39,3,23/7/91,25,m,80,Tim took the ticket,Sensible,edin_semantics,emo_sem_emo_sem,1.43104323069565,1,2,2,1,1224535.80999709,128,A
39,3,23/7/91,25,m,81,Ben climbed the stairs,Sensible,edin_semantics,emo_sem_emo_sem,1.27835949556902,1,1,1,1,1224537.83293414,143,A
39,3,23/7/91,25,m,82,The room tidied Sam,Non-sensible,edin_semantics,emo_sem_emo_sem,1.32509442046285,1,2,2,1,1224539.90287489,2,A
39,3,23/7/91,25,m,83,The parcel mailed Rob,Non-sensible,edin_semantics,emo_sem_emo_sem,1.73684367514215,2,2,2,1,1224542.38447123,14,A
39,3,23/7/91,25,m,84,Liam mixed the nuts,Sensible,edin_semantics,emo_sem_emo_sem,1.47798790736124,2,1,1,1,1224544.6074004,83,A
39,3,23/7/91,25,m,85,Ben got the radio,Sensible,edin_semantics,emo_sem_emo_sem,1.25466168997809,1,2,2,1,1224546.6067798,88,A
39,3,23/7/91,25,m,86,The plans cancelled Ian,Non-sensible,edin_semantics,emo_sem_emo_sem,1.34833680139855,1,1,1,1,1224548.7002349,7,A
39,3,23/7/91,25,m,87,The towels passed Phil,Non-sensible,edin_semantics,emo_sem_emo_sem,1.32550334068947,1,1,1,1,1224550.7702183,43,A
39,3,23/7/91,25,m,88,Erin tidied the garage,Sensible,edin_semantics,emo_sem_emo_sem,2.8783371092286,2,1,1,1,1224554.39266695,77,A
39,3,23/7/91,25,m,89,Ian filed the report,Sensible,edin_semantics,emo_sem_emo_sem,1.45489818998612,1,1,1,1,1224556.59199677,99,A
39,3,23/7/91,25,m,90,Josh taught the rules,Sensible,edin_semantics,emo_sem_emo_sem,1.3018703206908,1,2,2,1,1224558.63843118,90,A
39,3,23/7/91,25,m,91,Jack cleaned the bath,Sensible,edin_semantics,emo_sem_emo_sem,1.5363890840672,1,2,2,1,1224560.92010502,80,A
39,3,23/7/91,25,m,92,Amy lifted the crate,Sensible,edin_semantics,emo_sem_emo_sem,1.33681391202845,2,2,2,1,1224563.00186275,144,A
39,3,23/7/91,25,m,93,Ian labeled the box,Sensible,edin_semantics,emo_sem_emo_sem,1.87834961735643,2,2,2,1,1224565.62457857,136,A
39,3,23/7/91,25,m,94,Sam sucked the candy,Sensible,edin_semantics,emo_sem_emo_sem,1.85428330255672,2,1,1,1,1224568.22379736,87,A
39,3,23/7/91,25,m,95,The picture painted Ryan,Non-sensible,edin_semantics,emo_sem_emo_sem,1.63052443112247,2,1,1,1,1224570.59959114,35,A
39,3,23/7/91,25,m,96,The coins polished Jon,Non-sensible,edin_semantics,emo_sem_emo_sem,1.65465136268176,1,1,1,1,1224572.99884412,29,A
39,3,23/7/91,25,m,97,The dishes washed Mark,Non-sensible,edin_semantics,emo_sem_emo_sem,1.80782099114731,2,1,1,1,1224575.5510419,57,A
39,3,23/7/91,25,m,98,Ian dented the bowl,Sensible,edin_semantics,emo_sem_emo_sem,1.44318254711106,1,2,2,1,1224577.7386054,146,A
39,3,23/7/91,25,m,99,Jack posted the gift,Sensible,edin_semantics,emo_sem_emo_sem,1.74885117495433,2,1,1,1,1224580.23196357,111,A
39,3,23/7/91,25,m,100,The papers filed Lara,Non-sensible,edin_semantics,emo_sem_emo_sem,1.5958101558499,1,2,2,1,1224582.57244045,24,A
39,3,23/7/91,25,m,101,Ian mailed the invite,Sensible,edin_semantics,emo_sem_emo_sem,2.04268709616736,2,1,1,1,1224585.35987092,89,A
39,3,23/7/91,25,m,102,Beth washed the pan,Sensible,edin_semantics,emo_sem_emo_sem,1.43123502237722,2,2,2,1,1224587.53566746,132,A
39,3,23/7/91,25,m,103,Eve ironed the trousers,Sensible,edin_semantics,emo_sem_emo_sem,1.32531411480159,1,2,2,1,1224589.60572014,130,A
39,3,23/7/91,25,m,104,The tomato sliced Liz,Non-sensible,edin_semantics,emo_sem_emo_sem,1.48996076919138,2,1,1,1,1224591.84026808,3,A
39,3,23/7/91,25,m,105,Ian pushed the button,Sensible,edin_semantics,emo_sem_emo_sem,1.74852949078195,2,1,1,1,1224594.33367565,101,A
39,3,23/7/91,25,m,106,Emma pulled the rope,Sensible,edin_semantics,emo_sem_emo_sem,1.47769637149759,1,2,2,1,1224596.55650411,120,A
39,3,23/7/91,25,m,107,The garden watered Jeff,Non-sensible,edin_semantics,emo_sem_emo_sem,1.84278927813284,1,2,2,1,1224599.14399474,54,A
39,3,23/7/91,25,m,108,Rose built the shed,Sensible,edin_semantics,emo_sem_emo_sem,1.43069043685682,1,1,1,1,1224601.3197621,121,A
39,3,23/7/91,25,m,109,Sara jumped the hedge,Sensible,edin_semantics,emo_sem_emo_sem,1.83128114207648,1,2,2,1,1224603.89549155,92,A
39,3,23/7/91,25,m,110,The sheets counted Bill,Non-sensible,edin_semantics,emo_sem_emo_sem,1.73715830314904,2,2,2,1,1224606.37710105,48,A
39,3,23/7/91,25,m,111,The toffee chewed Ben,Non-sensible,edin_semantics,emo_sem_emo_sem,2.18395057297312,2,1,1,1,1224609.30564361,31,A
39,3,23/7/91,25,m,112,The garlic crushed Erin,Non-sensible,edin_semantics,emo_sem_emo_sem,1.77230266621336,1,2,2,1,1224611.82252416,6,A
39,3,23/7/91,25,m,113,Phil solved the problem,Sensible,edin_semantics,emo_sem_emo_sem,2.32491898559965,2,1,1,1,1224614.89220736,109,A
39,3,23/7/91,25,m,114,Rob measured the curtains,Sensible,edin_semantics,emo_sem_emo_sem,1.68955037393607,2,2,2,1,1224617.32675993,126,A
39,3,23/7/91,25,m,115,Owen swallowed the gum,Sensible,edin_semantics,emo_sem_emo_sem,1.70159154944122,2,1,1,1,1224619.77306663,97,A
39,3,23/7/91,25,m,116,The shirt ironed Josh,Non-sensible,edin_semantics,emo_sem_emo_sem,1.7355460349936,2,1,1,1,1224622.25471653,55,A
39,3,23/7/91,25,m,117,The cheese grated Andy,Non-sensible,edin_semantics,emo_sem_emo_sem,1.49000342516229,1,1,1,1,1224624.48930104,65,A
39,3,23/7/91,25,m,118,Hugh kissed the rose,Sensible,edin_semantics,emo_sem_emo_sem,1.32533848960884,1,2,2,1,1224626.55927643,98,A
39,3,23/7/91,25,m,119,The puzzle solved Joe,Non-sensible,edin_semantics,emo_sem_emo_sem,1.34872936457396,2,2,2,1,1224628.6527373,34,A
39,3,23/7/91,25,m,120,The ball squeezed Josh,Non-sensible,edin_semantics,emo_sem_emo_sem,1.48981548240408,1,1,1,1,1224630.88737986,1,A
39,3,23/7/91,25,m,121,Erin described the church,Sensible,edin_semantics,emo_sem_emo_sem,1.73644213145599,2,1,1,1,1224633.36902656,117,A
39,3,23/7/91,25,m,122,Tom whisked the cream,Sensible,edin_semantics,emo_sem_emo_sem,1.44285027962178,1,1,1,1,1224635.55663881,137,A
39,3,23/7/91,25,m,123,The shelf dusted Jake,Non-sensible,edin_semantics,emo_sem_emo_sem,2.17158707208,2,1,1,1,1224638.47338523,47,A
39,3,23/7/91,25,m,124,The jumper wore Joe,Non-sensible,edin_semantics,emo_sem_emo_sem,1.61921867053024,2,1,1,1,1224640.83735112,25,A
39,3,23/7/91,25,m,125,Tom offered the sweets,Sensible,edin_semantics,emo_sem_emo_sem,1.5838132398203,2,2,2,1,1224643.16605847,84,A
39,3,23/7/91,25,m,126,Leo carried the wallet,Sensible,edin_semantics,emo_sem_emo_sem,1.50145351071842,1,2,2,1,1224645.41249654,150,A
39,3,23/7/91,25,m,127,The thread measured Amy,Non-sensible,edin_semantics,emo_sem_emo_sem,1.85431024315767,2,1,1,1,1224648.01170057,51,A
39,3,23/7/91,25,m,128,Josh crushed the ice,Sensible,edin_semantics,emo_sem_emo_sem,1.44312642072327,2,1,1,1,1224650.19924226,81,A
39,3,23/7/91,25,m,129,Ryan stroked the blanket,Sensible,edin_semantics,emo_sem_emo_sem,1.51345042674802,1,2,2,1,1224652.45740495,116,A
39,3,23/7/91,25,m,130,Bill trimmed the hair,Sensible,edin_semantics,emo_sem_emo_sem,2.14872442581691,2,1,1,1,1224655.35071624,107,A
39,3,23/7/91,25,m,131,The bowl scrubbed Liz,Non-sensible,edin_semantics,emo_sem_emo_sem,1.47807963402011,1,2,2,1,1224657.57351038,56,A
39,3,23/7/91,25,m,132,The movie watched Ella,Non-sensible,edin_semantics,emo_sem_emo_sem,1.47775057354011,1,1,1,1,1224659.7964219,33,A
39,3,23/7/91,25,m,133,The letter typed Phil,Non-sensible,edin_semantics,emo_sem_emo_sem,1.54875450930558,1,1,1,1,1224662.08983062,49,A
39,3,23/7/91,25,m,134,The ham ate Tim,Non-sensible,edin_semantics,emo_sem_emo_sem,1.56032390310429,1,1,1,1,1224664.39499347,67,A
39,3,23/7/91,25,m,135,The hill climbed Luke,Non-sensible,edin_semantics,emo_sem_emo_sem,1.64268491533585,2,2,2,1,1224666.78253337,68,A
39,3,23/7/91,25,m,136,Alex dusted the house,Sensible,edin_semantics,emo_sem_emo_sem,1.48982638702728,1,2,2,1,1224669.01713744,122,A
39,3,23/7/91,25,m,137,Josh scrubbed the pot,Sensible,edin_semantics,emo_sem_emo_sem,1.41945619694889,2,1,1,1,1224671.18119686,131,A
39,3,23/7/91,25,m,138,The museum visited Mary,Non-sensible,edin_semantics,emo_sem_emo_sem,1.44308440643363,1,2,2,1,1224673.36880847,16,A
39,3,23/7/91,25,m,139,The bushes trimmed Jon,Non-sensible,edin_semantics,emo_sem_emo_sem,1.34886150225066,2,2,2,1,1224675.46228473,32,A
39,3,23/7/91,25,m,140,The floor cleaned Tim,Non-sensible,edin_semantics,emo_sem_emo_sem,1.37249901215546,2,1,1,1,1224677.5792824,5,A
39,3,23/7/91,25,m,141,The wall punched Jane,Non-sensible,edin_semantics,emo_sem_emo_sem,1.25504142441787,1,2,2,1,1224679.5787638,50,A
39,3,23/7/91,25,m,142,The bike kicked Matt,Non-sensible,edin_semantics,emo_sem_emo_sem,1.33727094042115,2,1,1,1,1224681.66041794,39,A
39,3,23/7/91,25,m,143,Luke watered the plants,Sensible,edin_semantics,emo_sem_emo_sem,1.65486913267523,1,1,1,1,1224684.05969721,129,A
39,3,23/7/91,25,m,144,Alex wrote the report,Sensible,edin_semantics,emo_sem_emo_sem,2.37174691981636,1,1,1,1,1224687.17643093,149,A
39,3,23/7/91,25,m,145,The laptop fixed Jen,Non-sensible,edin_semantics,emo_sem_emo_sem,1.54852391034365,1,1,1,1,1224689.46984126,37,A
39,3,23/7/91,25,m,146,The lolly sucked Leah,Non-sensible,edin_semantics,emo_sem_emo_sem,1.50170720159076,2,2,2,1,1224691.71624629,12,A
39,3,23/7/91,25,m,147,John carried the kettle,Sensible,edin_semantics,emo_sem_emo_sem,1.25504880119115,1,1,1,1,1224693.71570812,105,A
39,3,23/7/91,25,m,148,Max kicked the door,Sensible,edin_semantics,emo_sem_emo_sem,1.37272095144726,1,2,2,1,1224695.8326673,114,A
39,3,23/7/91,25,m,149,Eve typed the message,Sensible,edin_semantics,emo_sem_emo_sem,1.21824342012405,1,2,2,1,1224697.79679362,124,A
39,3,23/7/91,25,m,150,The jar labeled Liz,Non-sensible,edin_semantics,emo_sem_emo_sem,1.60788436583243,1,1,1,1,1224700.1490413,61,A
39,3,23/7/91,25,m,151,The scarf knitted Tom,Non-sensible,edin_semantics,emo_sem_emo_sem,1.2902791176457,1,2,2,1,1224702.18368694,66,A
39,3,23/7/91,25,m,152,The house built Kate,Non-sensible,edin_semantics,emo_sem_emo_sem,1.52573984093033,2,2,2,1,1224704.453589,46,A
39,3,23/7/91,25,m,153,Zoe paid the debt,Sensible,edin_semantics,emo_sem_emo_sem,1.33715516002849,1,2,2,1,1224706.53536534,134,A
39,3,23/7/91,25,m,154,The table wiped Beth,Non-sensible,edin_semantics,emo_sem_emo_sem,1.41919994051568,1,2,2,1,1224708.69939204,40,A
39,3,23/7/91,25,m,155,Adam watched the opera,Sensible,edin_semantics,emo_sem_emo_sem,1.58375903801061,1,2,2,1,1224711.02810869,108,A
39,3,23/7/91,25,m,156,The trolley pushed Matt,Non-sensible,edin_semantics,emo_sem_emo_sem,1.28997122473083,2,2,2,1,1224713.06277486,26,A
39,3,23/7/91,25,m,157,Fred stored the rice,Sensible,edin_semantics,emo_sem_emo_sem,1.33682642038912,1,1,1,1,1224715.14453227,127,A
39,3,23/7/91,25,m,158,The mirror kissed Max,Non-sensible,edin_semantics,emo_sem_emo_sem,1.65415264060721,2,1,1,1,1224717.54378878,23,A
39,3,23/7/91,25,m,159,The wine stored Leo,Non-sensible,edin_semantics,emo_sem_emo_sem,1.28977366024628,2,2,2,1,1224719.57847547,52,A
39,3,23/7/91,25,m,160,Jane licked the plate,Sensible,edin_semantics,emo_sem_emo_sem,1.51321277185343,2,2,2,1,1224721.83662372,96,A
39,3,23/7/91,25,m,161,Fred lent the car,Sensible,edin_semantics,emo_sem_emo_sem,1.38415852910839,2,2,2,1,1224723.96538162,94,A
39,3,23/7/91,25,m,162,The fur stroked Rob,Non-sensible,edin_semantics,emo_sem_emo_sem,1.34903533314355,1,1,1,1,1224726.0588813,41,A
39,3,23/7/91,25,m,163,The paper cut Jon,Non-sensible,edin_semantics,emo_sem_emo_sem,1.4770587766543,2,2,2,1,1224728.28177614,20,A
39,3,23/7/91,25,m,164,Luke read the poster,Sensible,edin_semantics,emo_sem_emo_sem,1.31328673032112,1,1,1,1,1224730.33999323,79,A
39,3,23/7/91,25,m,165,Tim sniffed the perfume,Sensible,edin_semantics,emo_sem_emo_sem,1.83097036276013,2,1,1,1,1224732.91567168,93,A
39,3,23/7/91,25,m,166,The folder carried Dan,Non-sensible,edin_semantics,emo_sem_emo_sem,1.50144741707481,2,2,2,1,1224735.16208248,30,A
39,3,23/7/91,25,m,167,The juice drank Matt,Non-sensible,edin_semantics,emo_sem_emo_sem,1.49001176422462,1,2,2,1,1224737.39667982,60,A
39,3,23/7/91,25,m,168,The photo took Beth,Non-sensible,edin_semantics,emo_sem_emo_sem,3.23055656766519,2,1,1,1,1224741.37191402,53,A
39,3,23/7/91,25,m,169,Erin punched the monitor,Sensible,edin_semantics,emo_sem_emo_sem,2.55987104424275,2,1,1,1,1224744.67684755,125,A
39,3,23/7/91,25,m,170,The flour weighed Jen,Non-sensible,edin_semantics,emo_sem_emo_sem,1.64244822273031,1,2,2,1,1224747.06436981,64,A
39,3,23/7/91,25,m,171,The herbs chopped Phil,Non-sensible,edin_semantics,emo_sem_emo_sem,2.44217291520908,2,1,1,1,1224750.25168668,27,A
39,3,23/7/91,25,m,172,Ella mashed the turnip,Sensible,edin_semantics,emo_sem_emo_sem,1.83069133479148,1,1,1,1,1224752.82737315,103,A
39,3,23/7/91,25,m,173,Fred served the dessert,Sensible,edin_semantics,emo_sem_emo_sem,2.18372638849542,2,1,1,1,1224755.75589102,145,A
