subject_column,AssignedList_column,subject_dob_column,subject_age_column,subject_gender_column,trialnum_column,Stim_column,Type_column,Experiment_column,OrderGroup_column,ReactionTime_column,StimSide_column,StimPosition_column,Response_column,Valid_column,TrialEndSecs_column,PairID_column,List_column
4,4,27/10/96,19,f,1,The shoes counted Lucy,Non-sensible,edin_semantics,sem_emo_sem_emo,1.45465251727728,1,1,1,1,87868.3699159196,123,B
4,4,27/10/96,19,f,2,The fat chewed Adam,Non-sensible,edin_semantics,sem_emo_sem_emo,2.52996695283218,2,2,2,1,87871.6395267687,106,B
4,4,27/10/96,19,f,3,Kate built the house,Sensible,edin_semantics,sem_emo_sem_emo,1.40177769624279,2,2,2,1,87873.7800676594,46,B
4,4,27/10/96,19,f,4,Tim cleaned the floor,Sensible,edin_semantics,sem_emo_sem_emo,1.8832233044086,2,1,1,1,87876.4027889318,5,B
4,4,27/10/96,19,f,5,Bill counted the sheets,Sensible,edin_semantics,sem_emo_sem_emo,5.82571694129729,1,2,2,1,87882.9655384533,48,B
4,4,27/10/96,19,f,6,Tom dialed the number,Sensible,edin_semantics,sem_emo_sem_emo,2.55643066254561,1,1,1,1,87886.2586402426,63,B
4,4,27/10/96,19,f,7,Will licked the spoon,Sensible,edin_semantics,sem_emo_sem_emo,1.46277062495938,2,1,1,1,87888.4579886644,21,B
4,4,27/10/96,19,f,8,The lemon squeezed Jay,Non-sensible,edin_semantics,sem_emo_sem_emo,1.25349490436201,1,2,2,1,87890.4574049509,76,B
4,4,27/10/96,19,f,9,The perfume sniffed Tim,Non-sensible,edin_semantics,sem_emo_sem_emo,5.55834505036182,2,1,1,1,87896.7613695843,93,B
4,4,27/10/96,19,f,10,The dessert served Fred,Non-sensible,edin_semantics,sem_emo_sem_emo,2.46250250162848,1,1,1,1,87899.9604213385,145,B
4,4,27/10/96,19,f,11,The plate licked Jane,Non-sensible,edin_semantics,sem_emo_sem_emo,1.82971377512149,2,2,2,1,87902.5361119806,96,B
4,4,27/10/96,19,f,12,The problem solved Phil,Non-sensible,edin_semantics,sem_emo_sem_emo,4.4849709810951,1,1,1,1,87907.7581713475,109,B
4,4,27/10/96,19,f,13,Ian cancelled the plans,Sensible,edin_semantics,sem_emo_sem_emo,5.80247808829881,1,1,1,1,87914.2973061301,7,B
4,4,27/10/96,19,f,14,The pillow hugged Kate,Non-sensible,edin_semantics,sem_emo_sem_emo,5.62507729392382,2,2,2,1,87920.660088237,86,B
4,4,27/10/96,19,f,15,Joe solved the puzzle,Sensible,edin_semantics,sem_emo_sem_emo,7.90728224278428,1,2,2,1,87929.3045384045,34,B
4,4,27/10/96,19,f,16,Jon cut the paper,Sensible,edin_semantics,sem_emo_sem_emo,3.76753994908358,2,2,2,1,87933.8090625048,20,B
4,4,27/10/96,19,f,17,Josh squeezed the ball,Sensible,edin_semantics,sem_emo_sem_emo,1.55721033699228,1,1,1,1,87936.1025145223,1,B
4,4,27/10/96,19,f,18,The car lent Fred,Non-sensible,edin_semantics,sem_emo_sem_emo,2.82634138644789,2,2,2,1,87939.666128068,94,B
4,4,27/10/96,19,f,19,Leo stored the wine,Sensible,edin_semantics,sem_emo_sem_emo,3.21786945857457,2,2,2,1,87943.6296783674,52,B
4,4,27/10/96,19,f,20,Sean read the book,Sensible,edin_semantics,sem_emo_sem_emo,2.76825708281831,2,2,2,1,87947.1344757226,4,B
4,4,27/10/96,19,f,21,The curtains measured Rob,Non-sensible,edin_semantics,sem_emo_sem_emo,1.81791217869613,1,2,2,1,87949.698425064,126,B
4,4,27/10/96,19,f,22,The bowl dented Ian,Non-sensible,edin_semantics,sem_emo_sem_emo,6.70849027315853,2,2,2,1,87957.143244254,146,B
4,4,27/10/96,19,f,23,The kettle carried John,Non-sensible,edin_semantics,sem_emo_sem_emo,2.51187568313617,2,1,1,1,87960.4010842959,105,B
4,4,27/10/96,19,f,24,The invite mailed Ian,Non-sensible,edin_semantics,sem_emo_sem_emo,1.06564820421045,2,1,1,1,87962.2123020506,89,B
4,4,27/10/96,19,f,25,Ryan carried the gun,Sensible,edin_semantics,sem_emo_sem_emo,1.49817894218722,1,1,1,1,87964.4469228036,75,B
4,4,27/10/96,19,f,26,Ella watched the movie,Sensible,edin_semantics,sem_emo_sem_emo,1.74469430089812,1,1,1,1,87966.9285736736,33,B
4,4,27/10/96,19,f,27,The bed sold Jay,Non-sensible,edin_semantics,sem_emo_sem_emo,6.26391996326856,2,1,1,1,87973.9381866652,113,B
4,4,27/10/96,19,f,28,The onion sliced Liam,Non-sensible,edin_semantics,sem_emo_sem_emo,1.9120981998567,2,2,2,1,87976.596242168,78,B
4,4,27/10/96,19,f,29,Phil chopped the herbs,Sensible,edin_semantics,sem_emo_sem_emo,1.19240896635165,2,1,1,1,87978.5250454783,27,B
4,4,27/10/96,19,f,30,Liz labeled the jar,Sensible,edin_semantics,sem_emo_sem_emo,3.7703809019149,2,1,1,1,87983.0413407065,61,B
4,4,27/10/96,19,f,31,The donut iced Joe,Non-sensible,edin_semantics,sem_emo_sem_emo,3.86420546972658,1,1,1,1,87987.6517558872,119,B
4,4,27/10/96,19,f,32,Joe wore the jumper,Sensible,edin_semantics,sem_emo_sem_emo,2.59017635845521,2,1,1,1,87990.980129687,25,B
4,4,27/10/96,19,f,33,The trophy polished Anna,Non-sensible,edin_semantics,sem_emo_sem_emo,4.32014183596766,1,2,2,1,87996.0374436171,104,B
4,4,27/10/96,19,f,34,The rope pulled Andy,Non-sensible,edin_semantics,sem_emo_sem_emo,3.48604219159461,2,2,2,1,88000.2596963792,148,B
4,4,27/10/96,19,f,35,The radio fixed Luke,Non-sensible,edin_semantics,sem_emo_sem_emo,7.49533702719782,1,2,2,1,88008.4925095447,112,B
4,4,27/10/96,19,f,36,Phil typed the letter,Sensible,edin_semantics,sem_emo_sem_emo,2.85044201865094,2,1,1,1,88012.0796698363,49,B
4,4,27/10/96,19,f,37,The gift posted Jack,Non-sensible,edin_semantics,sem_emo_sem_emo,3.50934101954044,1,1,1,1,88016.3254824937,111,B
4,4,27/10/96,19,f,38,Jen searched the room,Sensible,edin_semantics,sem_emo_sem_emo,5.52061406659777,1,2,1,0,88022.5824043095,10,B
4,4,27/10/96,19,f,39,Mary iced the cake,Sensible,edin_semantics,sem_emo_sem_emo,4.91930032636446,2,2,2,1,88028.2395415861,44,B
4,4,27/10/96,19,f,40,Jon trimmed the bushes,Sensible,edin_semantics,sem_emo_sem_emo,5.93117536806676,1,2,2,1,88034.908118685,32,B
4,4,27/10/96,19,f,41,Jon jumped the fence,Sensible,edin_semantics,sem_emo_sem_emo,1.61496878735488,2,1,1,1,88037.260363801,17,B
4,4,27/10/96,19,f,42,The ticket took Tim,Non-sensible,edin_semantics,sem_emo_sem_emo,1.31023345974972,1,2,2,1,88039.3068370169,128,B
4,4,27/10/96,19,f,43,The church described Erin,Non-sensible,edin_semantics,sem_emo_sem_emo,5.73424839510699,1,1,1,1,88045.7871835118,117,B
4,4,27/10/96,19,f,44,Jake dusted the shelf,Sensible,edin_semantics,sem_emo_sem_emo,2.62637172671384,2,1,1,1,88049.1508870521,47,B
4,4,27/10/96,19,f,45,The candy sucked Sam,Non-sensible,edin_semantics,sem_emo_sem_emo,7.08470965705055,1,1,1,1,88056.9720917598,87,B
4,4,27/10/96,19,f,46,The rules taught Josh,Non-sensible,edin_semantics,sem_emo_sem_emo,6.1663532146631,2,2,2,1,88063.8758662693,90,B
4,4,27/10/96,19,f,47,Josh ironed the shirt,Sensible,edin_semantics,sem_emo_sem_emo,5.67276540362218,1,1,1,1,88070.285710437,55,B
4,4,27/10/96,19,f,48,Jon polished the coins,Sensible,edin_semantics,sem_emo_sem_emo,2.81416294201335,2,1,1,1,88073.8375916623,29,B
4,4,27/10/96,19,f,49,Luke climbed the hill,Sensible,edin_semantics,sem_emo_sem_emo,3.66216555141727,1,2,2,1,88078.2362634896,68,B
4,4,27/10/96,19,f,50,The report wrote Alex,Non-sensible,edin_semantics,sem_emo_sem_emo,2.18014649284305,2,1,1,1,88081.1530471127,149,B
4,4,27/10/96,19,f,51,Carl sold the sofa,Sensible,edin_semantics,sem_emo_sem_emo,3.89739663781074,2,2,2,1,88085.7869455363,38,B
4,4,27/10/96,19,f,52,Luke swallowed the pill,Sensible,edin_semantics,sem_emo_sem_emo,6.5697797411558,2,2,2,1,88093.1024205508,22,B
4,4,27/10/96,19,f,53,The ice crushed Josh,Non-sensible,edin_semantics,sem_emo_sem_emo,11.9533725169749,1,1,1,1,88105.7927188477,81,B
4,4,27/10/96,19,f,54,Kate lifted the box,Sensible,edin_semantics,sem_emo_sem_emo,1.67383725555555,2,1,1,1,88108.2037708533,69,B
4,4,27/10/96,19,f,55,The hotline dialed Hugh,Non-sensible,edin_semantics,sem_emo_sem_emo,15.0694955817453,2,2,2,1,88124.0107608545,138,B
4,4,27/10/96,19,f,56,The button pushed Ian,Non-sensible,edin_semantics,sem_emo_sem_emo,4.78945358001511,1,1,1,1,88129.5384930185,101,B
4,4,27/10/96,19,f,57,Max kissed the mirror,Sensible,edin_semantics,sem_emo_sem_emo,1.22583361984289,2,1,1,1,88131.5026209377,23,B
4,4,27/10/96,19,f,58,Dan whisked the eggs,Sensible,edin_semantics,sem_emo_sem_emo,6.95543764400645,1,2,2,1,88139.194469924,62,B
4,4,27/10/96,19,f,59,Matt drank the juice,Sensible,edin_semantics,sem_emo_sem_emo,7.47184352116892,1,2,2,1,88147.4037328157,60,B
4,4,27/10/96,19,f,60,Phil sniffed the milk,Sensible,edin_semantics,sem_emo_sem_emo,3.96613627849729,1,2,2,1,88152.1082349145,18,B
4,4,27/10/96,19,f,61,The hedge jumped Sara,Non-sensible,edin_semantics,sem_emo_sem_emo,2.67413584745373,1,2,2,1,88155.5189277119,92,B
4,4,27/10/96,19,f,62,Mike paid the bill,Sensible,edin_semantics,sem_emo_sem_emo,6.72055293704034,2,1,1,1,88162.9755504226,59,B
4,4,27/10/96,19,f,63,The nuts mixed Liam,Non-sensible,edin_semantics,sem_emo_sem_emo,1.92151811692747,1,1,1,1,88165.6335674388,83,B
4,4,27/10/96,19,f,64,Sam tidied the room,Sensible,edin_semantics,sem_emo_sem_emo,3.4135594079271,1,2,2,1,88169.7852485978,2,B
4,4,27/10/96,19,f,65,The trousers ironed Eve,Non-sensible,edin_semantics,sem_emo_sem_emo,1.19255136678112,1,2,2,1,88171.7140910362,130,B
4,4,27/10/96,19,f,66,The internet searched Max,Non-sensible,edin_semantics,sem_emo_sem_emo,3.7565350253717,1,1,1,1,88176.206851706,85,B
4,4,27/10/96,19,f,67,The opera watched Adam,Non-sensible,edin_semantics,sem_emo_sem_emo,2.52119713864522,2,2,2,1,88179.4646769948,108,B
4,4,27/10/96,19,f,68,The turnip mashed Ella,Non-sensible,edin_semantics,sem_emo_sem_emo,4.38213573711982,1,1,1,1,88184.5925644522,103,B
4,4,27/10/96,19,f,69,The portrait painted Jay,Non-sensible,edin_semantics,sem_emo_sem_emo,2.78036689279543,2,2,2,1,88188.1091842508,110,B
4,4,27/10/96,19,f,70,The wallet carried Leo,Non-sensible,edin_semantics,sem_emo_sem_emo,4.36825329829298,2,2,2,1,88193.2135021912,150,B
4,4,27/10/96,19,f,71,The door kicked Max,Non-sensible,edin_semantics,sem_emo_sem_emo,1.82729392989131,2,2,2,1,88195.7774306856,114,B
4,4,27/10/96,19,f,72,The beer drank Jack,Non-sensible,edin_semantics,sem_emo_sem_emo,8.49474497493065,2,1,1,1,88205.009970917,135,B
4,4,27/10/96,19,f,73,The desk wiped Lucy,Non-sensible,edin_semantics,sem_emo_sem_emo,5.33459195219621,2,1,1,1,88211.0905211343,115,B
4,4,27/10/96,19,f,74,The salt passed Leo,Non-sensible,edin_semantics,sem_emo_sem_emo,3.93149673120934,2,2,2,1,88215.759656289,118,B
4,4,27/10/96,19,f,75,The box labeled Ian,Non-sensible,edin_semantics,sem_emo_sem_emo,1.76877184116165,2,2,2,1,88218.2648061173,136,B
4,4,27/10/96,19,f,76,The crate lifted Amy,Non-sensible,edin_semantics,sem_emo_sem_emo,1.5481335921213,1,2,2,1,88220.5582536447,144,B
4,4,27/10/96,19,f,77,Erin crushed the garlic,Sensible,edin_semantics,sem_emo_sem_emo,5.34443842912151,1,2,2,1,88226.6387448492,6,B
4,4,27/10/96,19,f,78,The steak ate Mike,Non-sensible,edin_semantics,sem_emo_sem_emo,5.17059989069821,2,2,2,1,88232.5546160191,142,B
4,4,27/10/96,19,f,79,Lily got the kettle,Sensible,edin_semantics,sem_emo_sem_emo,4.14377921774576,1,1,1,1,88237.4355083182,13,B
4,4,27/10/96,19,f,80,The monitor punched Erin,Non-sensible,edin_semantics,sem_emo_sem_emo,4.33262111734075,2,1,1,1,88242.5045693221,125,B
4,4,27/10/96,19,f,81,The debt paid Zoe,Non-sensible,edin_semantics,sem_emo_sem_emo,3.2854452002066,1,2,2,1,88246.5268800065,134,B
4,4,27/10/96,19,f,82,Mary visited the museum,Sensible,edin_semantics,sem_emo_sem_emo,6.94321718503488,2,2,2,1,88254.2069469603,16,B
4,4,27/10/96,19,f,83,The dress wore Kate,Non-sensible,edin_semantics,sem_emo_sem_emo,3.56696861545788,2,2,2,1,88258.511537001,100,B
4,4,27/10/96,19,f,84,The carrots chopped Fred,Non-sensible,edin_semantics,sem_emo_sem_emo,3.92337926494656,1,2,2,1,88263.1807574677,102,B
4,4,27/10/96,19,f,85,The poster read Luke,Non-sensible,edin_semantics,sem_emo_sem_emo,5.47355457145022,2,1,1,1,88269.3906069594,79,B
4,4,27/10/96,19,f,86,Ewan wrote the story,Sensible,edin_semantics,sem_emo_sem_emo,1.92075030917476,2,2,2,1,88272.048641936,74,B
4,4,27/10/96,19,f,87,Tom knitted the scarf,Sensible,edin_semantics,sem_emo_sem_emo,1.13358187126869,2,2,2,1,88273.9186672217,66,B
4,4,27/10/96,19,f,88,Will mashed the potatoes,Sensible,edin_semantics,sem_emo_sem_emo,0.604518712192657,1,2,2,1,88275.2594503856,28,B
4,4,27/10/96,19,f,89,The pot scrubbed Josh,Non-sensible,edin_semantics,sem_emo_sem_emo,1.01825515848759,2,1,1,1,88277.0236153803,131,B
4,4,27/10/96,19,f,90,The sugar weighed Liz,Non-sensible,edin_semantics,sem_emo_sem_emo,2.73555116665375,2,1,1,1,88280.5049310961,139,B
4,4,27/10/96,19,f,91,The hospital visited Tom,Non-sensible,edin_semantics,sem_emo_sem_emo,1.51272302986763,2,1,1,1,88282.7630751823,91,B
4,4,27/10/96,19,f,92,The report filed Ian,Non-sensible,edin_semantics,sem_emo_sem_emo,1.16014853263914,1,1,1,1,88284.6684183417,99,B
4,4,27/10/96,19,f,93,Max lent the bucket,Sensible,edin_semantics,sem_emo_sem_emo,2.24198676830565,2,1,1,1,88287.65573893,19,B
4,4,27/10/96,19,f,94,Rob stroked the fur,Sensible,edin_semantics,sem_emo_sem_emo,9.81368378379557,1,1,1,1,88298.2054854315,41,B
4,4,27/10/96,19,f,95,The shed built Rose,Non-sensible,edin_semantics,sem_emo_sem_emo,1.84990737556654,2,1,1,1,88300.7929465601,121,B
4,4,27/10/96,19,f,96,Jen fixed the laptop,Sensible,edin_semantics,sem_emo_sem_emo,3.61477571289288,1,1,1,1,88305.1446044347,37,B
4,4,27/10/96,19,f,97,The rose kissed Hugh,Non-sensible,edin_semantics,sem_emo_sem_emo,4.21771551216079,1,2,1,0,88310.1078006574,98,B
4,4,27/10/96,19,f,98,Erin posted the card,Sensible,edin_semantics,sem_emo_sem_emo,1.71024750734796,2,2,2,1,88312.5541445582,36,B
4,4,27/10/96,19,f,99,The party cancelled Phil,Non-sensible,edin_semantics,sem_emo_sem_emo,2.75550807449326,1,2,1,0,88316.0472230632,82,B
4,4,27/10/96,19,f,100,Kate served the dish,Sensible,edin_semantics,sem_emo_sem_emo,1.8861216664227,2,2,2,1,88318.6699436941,70,B
4,4,27/10/96,19,f,101,The office entered Joe,Non-sensible,edin_semantics,sem_emo_sem_emo,2.47691445198143,2,1,1,1,88321.8925486086,133,B
4,4,27/10/96,19,f,102,Jen weighed the flour,Sensible,edin_semantics,sem_emo_sem_emo,1.43792591842066,2,2,2,1,88324.0683300791,64,B
4,4,27/10/96,19,f,103,The stairs climbed Ben,Non-sensible,edin_semantics,sem_emo_sem_emo,7.07292602105008,2,1,1,1,88331.8777367183,143,B
4,4,27/10/96,19,f,104,Mark washed the dishes,Sensible,edin_semantics,sem_emo_sem_emo,1.28647920695948,2,1,1,1,88333.9006506802,57,B
4,4,27/10/96,19,f,105,Matt offered the money,Sensible,edin_semantics,sem_emo_sem_emo,1.13328905236267,2,1,1,1,88335.7706830218,9,B
4,4,27/10/96,19,f,106,Beth took the photo,Sensible,edin_semantics,sem_emo_sem_emo,1.08879308575706,2,1,1,1,88337.6054183366,53,B
4,4,27/10/96,19,f,107,Eve taught the lesson,Sensible,edin_semantics,sem_emo_sem_emo,1.60671886305499,2,1,1,1,88339.9576644148,15,B
4,4,27/10/96,19,f,108,The blanket stroked Ryan,Non-sensible,edin_semantics,sem_emo_sem_emo,1.30090045824181,1,2,2,1,88342.0040997855,116,B
4,4,27/10/96,19,f,109,Jeff watered the garden,Sensible,edin_semantics,sem_emo_sem_emo,4.94423130704672,2,2,2,1,88347.6847597538,54,B
4,4,27/10/96,19,f,110,Leah sucked the lolly,Sensible,edin_semantics,sem_emo_sem_emo,3.38018125908275,1,2,2,1,88351.8011618464,12,B
4,4,27/10/96,19,f,111,Phil passed the towels,Sensible,edin_semantics,sem_emo_sem_emo,4.32063221944554,2,1,1,1,88356.8584837946,43,B
4,4,27/10/96,19,f,112,The rice stored Fred,Non-sensible,edin_semantics,sem_emo_sem_emo,1.70998098762357,2,1,1,1,88359.3047584196,127,B
4,4,27/10/96,19,f,113,Lara filed the papers,Sensible,edin_semantics,sem_emo_sem_emo,5.41704020055477,1,2,2,1,88365.4676337281,24,B
4,4,27/10/96,19,f,114,Dan carried the folder,Sensible,edin_semantics,sem_emo_sem_emo,1.81607027398422,2,2,2,1,88368.0198282984,30,B
4,4,27/10/96,19,f,115,Beth wiped the table,Sensible,edin_semantics,sem_emo_sem_emo,3.26477436585992,1,2,2,1,88372.0303944749,40,B
4,4,27/10/96,19,f,116,Carl brushed the teeth,Sensible,edin_semantics,sem_emo_sem_emo,1.0394407511485,1,2,2,1,88373.8063135991,72,B
4,4,27/10/96,19,f,117,The radio got Ben,Non-sensible,edin_semantics,sem_emo_sem_emo,1.50991511138272,2,2,2,1,88376.0526987448,88,B
4,4,27/10/96,19,f,118,Liz sliced the tomato,Sensible,edin_semantics,sem_emo_sem_emo,1.18286268493102,2,1,1,1,88377.9815277129,3,B
4,4,27/10/96,19,f,119,Hugh pulled the lever,Sensible,edin_semantics,sem_emo_sem_emo,1.60641032877902,2,1,1,1,88380.3337712254,45,B
4,4,27/10/96,19,f,120,Ryan entered the room,Sensible,edin_semantics,sem_emo_sem_emo,4.82640488934703,1,2,2,1,88385.8967984918,58,B
4,4,27/10/96,19,f,121,The pan washed Beth,Non-sensible,edin_semantics,sem_emo_sem_emo,1.60441287403228,2,2,2,1,88388.2372747251,132,B
4,4,27/10/96,19,f,122,Rob mailed the parcel,Sensible,edin_semantics,sem_emo_sem_emo,4.48575706998236,2,2,2,1,88393.459223443,14,B
4,4,27/10/96,19,f,123,Matt kicked the bike,Sensible,edin_semantics,sem_emo_sem_emo,1.55959105417423,2,1,1,1,88395.7644132332,39,B
4,4,27/10/96,19,f,124,Liz scrubbed the bowl,Sensible,edin_semantics,sem_emo_sem_emo,2.52418626489816,2,2,2,1,88399.0340298553,56,B
4,4,27/10/96,19,f,125,The ribbon cut Lucy,Non-sensible,edin_semantics,sem_emo_sem_emo,2.54523555084597,2,1,1,1,88402.3154060593,95,B
4,4,27/10/96,19,f,126,The carrots grated Tom,Non-sensible,edin_semantics,sem_emo_sem_emo,2.88856941444101,1,2,2,1,88405.9496033956,140,B
4,4,27/10/96,19,f,127,The rope pulled Emma,Non-sensible,edin_semantics,sem_emo_sem_emo,3.18264138695668,1,2,2,1,88409.8778438393,120,B
4,4,27/10/96,19,f,128,The house dusted Alex,Non-sensible,edin_semantics,sem_emo_sem_emo,1.37149643614248,1,2,2,1,88411.9948732636,122,B
4,4,27/10/96,19,f,129,The garage tidied Erin,Non-sensible,edin_semantics,sem_emo_sem_emo,1.08898102866078,2,1,1,1,88413.8295819585,77,B
4,4,27/10/96,19,f,130,Ryan painted the picture,Sensible,edin_semantics,sem_emo_sem_emo,1.90058910161315,2,1,1,1,88416.4758817281,35,B
4,4,27/10/96,19,f,131,Jane punched the wall,Sensible,edin_semantics,sem_emo_sem_emo,1.23944344521442,2,2,2,1,88418.4517195173,50,B
4,4,27/10/96,19,f,132,Amy measured the thread,Sensible,edin_semantics,sem_emo_sem_emo,1.53576848769444,2,1,1,1,88420.7333943132,51,B
4,4,27/10/96,19,f,133,Lily dented the lorry,Sensible,edin_semantics,sem_emo_sem_emo,2.5473587285087,1,1,1,1,88424.0265252883,71,B
4,4,27/10/96,19,f,134,Tim pulled the handle,Sensible,edin_semantics,sem_emo_sem_emo,1.11267530648911,1,1,1,1,88425.8848131219,73,B
4,4,27/10/96,19,f,135,The socks knitted Ryan,Non-sensible,edin_semantics,sem_emo_sem_emo,3.10025183067773,2,1,1,1,88429.7307156456,141,B
4,4,27/10/96,19,f,136,John described the pen,Sensible,edin_semantics,sem_emo_sem_emo,4.7561119934544,1,2,2,1,88435.2231478963,42,B
4,4,27/10/96,19,f,137,Ben chewed the toffee,Sensible,edin_semantics,sem_emo_sem_emo,1.08664809902257,2,1,1,1,88437.0461390239,31,B
4,4,27/10/96,19,f,138,The message typed Eve,Non-sensible,edin_semantics,sem_emo_sem_emo,1.30979727822705,2,2,2,1,88439.0925798469,124,B
4,4,27/10/96,19,f,139,The sweets offered Tom,Non-sensible,edin_semantics,sem_emo_sem_emo,2.44123897358077,2,2,2,1,88442.2798983184,84,B
4,4,27/10/96,19,f,140,The gum swallowed Owen,Non-sensible,edin_semantics,sem_emo_sem_emo,3.66250455424597,1,1,1,1,88446.678564052,97,B
4,4,27/10/96,19,f,141,The hair trimmed Bill,Non-sensible,edin_semantics,sem_emo_sem_emo,2.21817799285054,1,1,1,1,88449.6423577792,107,B
4,4,27/10/96,19,f,142,The plants watered Luke,Non-sensible,edin_semantics,sem_emo_sem_emo,3.78230950413854,2,1,1,1,88454.1704077784,129,B
4,4,27/10/96,19,f,143,Tim ate the ham,Sensible,edin_semantics,sem_emo_sem_emo,1.27498165472934,1,1,1,1,88456.181563762,67,B
4,4,27/10/96,19,f,144,The cream whisked Tom,Non-sensible,edin_semantics,sem_emo_sem_emo,2.34719695647073,1,1,1,1,88459.2747994848,137,B
4,4,27/10/96,19,f,145,The hair brushed Dan,Non-sensible,edin_semantics,sem_emo_sem_emo,5.02895764165442,1,1,1,1,88465.049500508,147,B
4,4,27/10/96,19,f,146,Jack mixed the fruits,Sensible,edin_semantics,sem_emo_sem_emo,1.9121947370877,1,2,2,1,88467.7075415784,8,B
4,4,27/10/96,19,f,147,The bath cleaned Jack,Non-sensible,edin_semantics,sem_emo_sem_emo,1.46208812919213,2,2,2,1,88469.9068710776,80,B
4,4,27/10/96,19,f,148,Amy hugged the tree,Sensible,edin_semantics,sem_emo_sem_emo,3.69646417154581,2,1,1,1,88474.3408040108,11,B
4,4,27/10/96,19,f,149,Andy grated the cheese,Sensible,edin_semantics,sem_emo_sem_emo,1.95900855942455,2,1,1,1,88477.0458747492,65,B
4,4,27/10/96,19,f,150,Matt pushed the trolley,Sensible,edin_semantics,sem_emo_sem_emo,3.59385599852249,1,2,2,1,88481.3857817014,26,B
4,4,27/10/96,19,f,151,The floor cleaned Tim,Non-sensible,edin_semantics,sem_emo_sem_emo,1.74068880757841,2,2,2,1,88486.7371255895,5,A
4,4,27/10/96,19,f,152,Hugh kissed the rose,Sensible,edin_semantics,sem_emo_sem_emo,1.36581485120405,2,1,1,1,88488.8425064016,98,A
4,4,27/10/96,19,f,153,The cake iced Mary,Non-sensible,edin_semantics,sem_emo_sem_emo,1.23819808285043,2,1,1,1,88490.8182271274,44,A
4,4,27/10/96,19,f,154,Fred lent the car,Sensible,edin_semantics,sem_emo_sem_emo,1.36846657822025,2,1,1,1,88492.9234578418,94,A
4,4,27/10/96,19,f,155,The bucket lent Max,Non-sensible,edin_semantics,sem_emo_sem_emo,1.8388453633961,1,2,2,1,88495.4991638785,19,A
4,4,27/10/96,19,f,156,The coins polished Jon,Non-sensible,edin_semantics,sem_emo_sem_emo,0.922055325776455,1,2,2,1,88497.1575016164,29,A
4,4,27/10/96,19,f,157,Beth washed the pan,Sensible,edin_semantics,sem_emo_sem_emo,2.144047020367,2,1,1,1,88500.0389952687,132,A
4,4,27/10/96,19,f,158,The room entered Ryan,Non-sensible,edin_semantics,sem_emo_sem_emo,1.1328996962111,2,1,1,1,88501.9090266481,58,A
4,4,27/10/96,19,f,159,The ball squeezed Josh,Non-sensible,edin_semantics,sem_emo_sem_emo,1.6738712520455,1,2,2,1,88504.3200574862,1,A
4,4,27/10/96,19,f,160,Lucy counted the shoes,Sensible,edin_semantics,sem_emo_sem_emo,1.06291116522334,1,2,2,1,88506.119525922,123,A
4,4,27/10/96,19,f,161,The lorry dented Lily,Non-sensible,edin_semantics,sem_emo_sem_emo,3.44990038384276,1,2,2,1,88510.3064806951,71,A
4,4,27/10/96,19,f,162,The toffee chewed Ben,Non-sensible,edin_semantics,sem_emo_sem_emo,1.48626284812053,1,2,2,1,88512.5294422521,31,A
4,4,27/10/96,19,f,163,The tomato sliced Liz,Non-sensible,edin_semantics,sem_emo_sem_emo,1.78012955874146,1,2,2,1,88515.0462750099,3,A
4,4,27/10/96,19,f,164,Fred served the dessert,Sensible,edin_semantics,sem_emo_sem_emo,1.02696563916106,1,2,2,1,88516.8104169126,145,A
4,4,27/10/96,19,f,165,The lever pulled Hugh,Non-sensible,edin_semantics,sem_emo_sem_emo,1.28580633284582,2,2,2,1,88518.8333206114,45,A
4,4,27/10/96,19,f,166,Liam sliced the onion,Sensible,edin_semantics,sem_emo_sem_emo,1.82719931699103,2,1,1,1,88521.3973113258,78,A
4,4,27/10/96,19,f,167,Jack cleaned the bath,Sensible,edin_semantics,sem_emo_sem_emo,4.20246327095083,1,1,2,0,88526.3369691414,80,A
4,4,27/10/96,19,f,168,The cheese grated Andy,Non-sensible,edin_semantics,sem_emo_sem_emo,2.03786087606568,2,2,2,1,88529.1126060306,65,A
4,4,27/10/96,19,f,169,Emma pulled the rope,Sensible,edin_semantics,sem_emo_sem_emo,4.31991701005609,2,1,1,1,88534.1699064904,120,A
4,4,27/10/96,19,f,170,The room tidied Sam,Non-sensible,edin_semantics,sem_emo_sem_emo,2.36681454075733,1,1,1,1,88537.2748931355,2,A
4,4,27/10/96,19,f,171,Sara jumped the hedge,Sensible,edin_semantics,sem_emo_sem_emo,1.37980216603319,2,1,1,1,88539.3918805453,92,A
4,4,27/10/96,19,f,172,The eggs whisked Dan,Non-sensible,edin_semantics,sem_emo_sem_emo,1.49733063328313,2,1,1,1,88541.6265012983,62,A
4,4,27/10/96,19,f,173,Alex wrote the report,Sensible,edin_semantics,sem_emo_sem_emo,2.70889758972044,2,2,1,0,88545.0725045927,149,A
4,4,27/10/96,19,f,174,The bike kicked Matt,Non-sensible,edin_semantics,sem_emo_sem_emo,2.88518804554769,2,2,2,1,88548.6949587039,39,A
4,4,27/10/96,19,f,175,Phil cancelled the party,Sensible,edin_semantics,sem_emo_sem_emo,1.67408036258712,1,1,1,1,88551.1059969185,82,A
4,4,27/10/96,19,f,176,Erin described the church,Sensible,edin_semantics,sem_emo_sem_emo,1.75566586956847,2,2,2,1,88553.599375619,117,A
4,4,27/10/96,19,f,177,The papers filed Lara,Non-sensible,edin_semantics,sem_emo_sem_emo,2.57035222940613,2,1,1,1,88556.9160196641,24,A
4,4,27/10/96,19,f,178,Tim took the ticket,Sensible,edin_semantics,sem_emo_sem_emo,1.39217560923134,1,1,1,1,88559.0447887855,128,A
4,4,27/10/96,19,f,179,Ian filed the report,Sensible,edin_semantics,sem_emo_sem_emo,1.05058903747704,2,2,2,1,88560.8324825656,99,A
4,4,27/10/96,19,f,180,Alex dusted the house,Sensible,edin_semantics,sem_emo_sem_emo,2.79160081180453,2,1,1,1,88564.3608186486,122,A
4,4,27/10/96,19,f,181,The fruits mixed Jack,Non-sensible,edin_semantics,sem_emo_sem_emo,1.62678000543383,2,1,1,1,88566.7248355339,8,A
4,4,27/10/96,19,f,182,The mirror kissed Max,Non-sensible,edin_semantics,sem_emo_sem_emo,2.50964185649354,2,2,2,1,88569.970921767,23,A
4,4,27/10/96,19,f,183,Tim sniffed the perfume,Sensible,edin_semantics,sem_emo_sem_emo,1.29832794949471,2,2,2,1,88572.0056363632,93,A
4,4,27/10/96,19,f,184,The pen described John,Non-sensible,edin_semantics,sem_emo_sem_emo,1.42674171125691,2,1,1,1,88574.1696883996,42,A
4,4,27/10/96,19,f,185,The handle pulled Tim,Non-sensible,edin_semantics,sem_emo_sem_emo,3.28495898611436,2,2,2,1,88578.1919801614,73,A
4,4,27/10/96,19,f,186,Max kicked the door,Sensible,edin_semantics,sem_emo_sem_emo,4.08483088985668,1,1,1,1,88583.0140877007,114,A
4,4,27/10/96,19,f,187,Ian mailed the invite,Sensible,edin_semantics,sem_emo_sem_emo,3.13151546134031,1,2,2,1,88586.883471543,89,A
4,4,27/10/96,19,f,188,The sheets counted Bill,Non-sensible,edin_semantics,sem_emo_sem_emo,1.27363879294717,2,1,1,1,88588.8946692205,48,A
4,4,27/10/96,19,f,189,Andy pulled the rope,Sensible,edin_semantics,sem_emo_sem_emo,1.1680767730868,1,1,1,1,88590.799970686,148,A
4,4,27/10/96,19,f,190,John carried the kettle,Sensible,edin_semantics,sem_emo_sem_emo,4.80495341838105,2,2,2,1,88596.3512447851,105,A
4,4,27/10/96,19,f,191,Rose built the shed,Sensible,edin_semantics,sem_emo_sem_emo,1.19175244904181,2,2,2,1,88598.2800759982,121,A
4,4,27/10/96,19,f,192,Leo carried the wallet,Sensible,edin_semantics,sem_emo_sem_emo,4.12038834266423,1,1,1,1,88603.1374812057,150,A
4,4,27/10/96,19,f,193,Fred chopped the carrots,Sensible,edin_semantics,sem_emo_sem_emo,3.81409526972857,2,1,1,1,88607.6890478029,102,A
4,4,27/10/96,19,f,194,The parcel mailed Rob,Non-sensible,edin_semantics,sem_emo_sem_emo,1.54464959229517,1,1,1,1,88609.9706600581,14,A
4,4,27/10/96,19,f,195,Fred stored the rice,Sensible,edin_semantics,sem_emo_sem_emo,6.73104470602993,1,2,2,1,88617.4390048262,127,A
4,4,27/10/96,19,f,196,Joe entered the office,Sensible,edin_semantics,sem_emo_sem_emo,3.66119504754897,1,2,2,1,88621.8376994248,133,A
4,4,27/10/96,19,f,197,The shelf dusted Jake,Non-sensible,edin_semantics,sem_emo_sem_emo,2.70868046111718,2,2,2,1,88625.2837129823,47,A
4,4,27/10/96,19,f,198,The tree hugged Amy,Non-sensible,edin_semantics,sem_emo_sem_emo,5.53115715106833,2,2,2,1,88631.5523876448,11,A
4,4,27/10/96,19,f,199,The towels passed Phil,Non-sensible,edin_semantics,sem_emo_sem_emo,2.50918995961547,2,2,2,1,88634.7985043464,43,A
4,4,27/10/96,19,f,200,The thread measured Amy,Non-sensible,edin_semantics,sem_emo_sem_emo,2.43795927347674,2,2,2,1,88637.9740302017,51,A
4,4,27/10/96,19,f,201,Adam watched the opera,Sensible,edin_semantics,sem_emo_sem_emo,3.35575220784813,2,1,1,1,88642.0668980567,108,A
4,4,27/10/96,19,f,202,Amy lifted the crate,Sensible,edin_semantics,sem_emo_sem_emo,1.6622656165855,2,1,1,1,88644.4661908012,144,A
4,4,27/10/96,19,f,203,Max searched the internet,Sensible,edin_semantics,sem_emo_sem_emo,2.50975635413488,2,2,2,1,88647.7122937118,85,A
4,4,27/10/96,19,f,204,Jack posted the gift,Sensible,edin_semantics,sem_emo_sem_emo,1.68648876447696,1,2,2,1,88650.1350741893,111,A
4,4,27/10/96,19,f,205,Ben got the radio,Sensible,edin_semantics,sem_emo_sem_emo,1.98045169161924,2,1,1,1,88652.8519067547,88,A
4,4,27/10/96,19,f,206,The book read Sean,Non-sensible,edin_semantics,sem_emo_sem_emo,1.4770186865353,2,1,1,1,88655.0747615114,4,A
4,4,27/10/96,19,f,207,The lesson taught Eve,Non-sensible,edin_semantics,sem_emo_sem_emo,3.57993860104762,2,2,2,1,88659.3911348673,15,A
4,4,27/10/96,19,f,208,Mike ate the steak,Sensible,edin_semantics,sem_emo_sem_emo,1.20619101928605,2,1,1,1,88661.3434679253,142,A
4,4,27/10/96,19,f,209,Jay sold the bed,Sensible,edin_semantics,sem_emo_sem_emo,3.58205760932469,1,2,2,1,88665.6715800162,113,A
4,4,27/10/96,19,f,210,Erin punched the monitor,Sensible,edin_semantics,sem_emo_sem_emo,1.94748855664511,1,2,2,1,88668.3648991908,125,A
4,4,27/10/96,19,f,211,Erin tidied the garage,Sensible,edin_semantics,sem_emo_sem_emo,7.79284649490728,2,2,2,1,88676.9035221016,77,A
4,4,27/10/96,19,f,212,Lucy wiped the desk,Sensible,edin_semantics,sem_emo_sem_emo,1.59169273065345,2,2,2,1,88679.2321832681,115,A
4,4,27/10/96,19,f,213,The box lifted Kate,Non-sensible,edin_semantics,sem_emo_sem_emo,1.03917166564497,2,2,2,1,88681.0081322194,69,A
4,4,27/10/96,19,f,214,The pill swallowed Luke,Non-sensible,edin_semantics,sem_emo_sem_emo,1.4859767643502,2,1,1,1,88683.2310116717,22,A
4,4,27/10/96,19,f,215,Josh scrubbed the pot,Sensible,edin_semantics,sem_emo_sem_emo,1.79173070409161,1,2,2,1,88685.7596617412,131,A
4,4,27/10/96,19,f,216,The hill climbed Luke,Non-sensible,edin_semantics,sem_emo_sem_emo,3.70894537723507,1,1,1,1,88690.2053844042,68,A
4,4,27/10/96,19,f,217,The jumper wore Joe,Non-sensible,edin_semantics,sem_emo_sem_emo,2.97914346778998,1,2,2,1,88693.9219077938,25,A
4,4,27/10/96,19,f,218,Eve typed the message,Sensible,edin_semantics,sem_emo_sem_emo,1.56812064780388,1,1,1,1,88696.2271104129,124,A
4,4,27/10/96,19,f,219,Tom offered the sweets,Sensible,edin_semantics,sem_emo_sem_emo,2.16852802851645,2,1,1,1,88699.1321309263,84,A
4,4,27/10/96,19,f,220,Lucy cut the ribbon,Sensible,edin_semantics,sem_emo_sem_emo,3.33216248531244,2,2,2,1,88703.2014703166,95,A
4,4,27/10/96,19,f,221,Dan brushed the hair,Sensible,edin_semantics,sem_emo_sem_emo,3.12058462433924,1,2,2,1,88707.0591516654,147,A
4,4,27/10/96,19,f,222,Leo passed the salt,Sensible,edin_semantics,sem_emo_sem_emo,1.67440397079918,2,1,1,1,88709.4701869936,118,A
4,4,27/10/96,19,f,223,The flour weighed Jen,Non-sensible,edin_semantics,sem_emo_sem_emo,2.30921484762803,2,1,1,1,88712.5163359598,64,A
4,4,27/10/96,19,f,224,The laptop fixed Jen,Non-sensible,edin_semantics,sem_emo_sem_emo,1.08619139132497,2,2,2,1,88714.3393136171,37,A
4,4,27/10/96,19,f,225,Sam sucked the candy,Sensible,edin_semantics,sem_emo_sem_emo,1.67460025247419,1,2,2,1,88716.7503604912,87,A
4,4,27/10/96,19,f,226,Josh crushed the ice,Sensible,edin_semantics,sem_emo_sem_emo,2.28615591950074,2,2,2,1,88719.7729245457,81,A
4,4,27/10/96,19,f,227,The bowl scrubbed Liz,Non-sensible,edin_semantics,sem_emo_sem_emo,2.3472983045358,2,1,1,1,88722.8661698901,56,A
4,4,27/10/96,19,f,228,Tom grated the carrots,Sensible,edin_semantics,sem_emo_sem_emo,1.68868121803098,2,1,1,1,88725.3007176469,140,A
4,4,27/10/96,19,f,229,The photo took Beth,Non-sensible,edin_semantics,sem_emo_sem_emo,1.62974283250514,2,2,2,1,88727.6764825681,53,A
4,4,27/10/96,19,f,230,The table wiped Beth,Non-sensible,edin_semantics,sem_emo_sem_emo,1.61567148860195,2,1,1,1,88730.0287623221,40,A
4,4,27/10/96,19,f,231,Rob measured the curtains,Sensible,edin_semantics,sem_emo_sem_emo,1.10987219880917,2,1,1,1,88731.875198206,126,A
4,4,27/10/96,19,f,232,The house built Kate,Non-sensible,edin_semantics,sem_emo_sem_emo,5.18180269970617,2,1,1,1,88737.8029370411,46,A
4,4,27/10/96,19,f,233,The plans cancelled Ian,Non-sensible,edin_semantics,sem_emo_sem_emo,2.95912401923852,2,2,2,1,88741.5076665315,7,A
4,4,27/10/96,19,f,234,The wall punched Jane,Non-sensible,edin_semantics,sem_emo_sem_emo,6.28697087333421,1,1,2,0,88748.540824986,50,A
4,4,27/10/96,19,f,235,Ian dented the bowl,Sensible,edin_semantics,sem_emo_sem_emo,7.4631359269988,1,1,1,1,88756.7501324581,146,A
4,4,27/10/96,19,f,236,Luke read the poster,Sensible,edin_semantics,sem_emo_sem_emo,5.07553926146647,2,2,2,1,88762.5718817512,79,A
4,4,27/10/96,19,f,237,The fur stroked Rob,Non-sensible,edin_semantics,sem_emo_sem_emo,1.31013211168465,1,2,2,1,88764.6183479112,41,A
4,4,27/10/96,19,f,238,The spoon licked Will,Non-sensible,edin_semantics,sem_emo_sem_emo,2.27450923164724,2,2,2,1,88767.6292113966,21,A
4,4,27/10/96,19,f,239,The trolley pushed Matt,Non-sensible,edin_semantics,sem_emo_sem_emo,1.2298718267848,2,1,1,1,88769.6050671463,26,A
4,4,27/10/96,19,f,240,Jay squeezed the lemon,Sensible,edin_semantics,sem_emo_sem_emo,6.37866071748431,1,1,2,0,88776.7206103462,76,A
4,4,27/10/96,19,f,241,The bill paid Mike,Non-sensible,edin_semantics,sem_emo_sem_emo,1.29829202864494,1,2,2,1,88778.755278117,59,A
4,4,27/10/96,19,f,242,The herbs chopped Phil,Non-sensible,edin_semantics,sem_emo_sem_emo,1.27475939458236,2,2,2,1,88780.7664264034,27,A
4,4,27/10/96,19,f,243,Ella mashed the turnip,Sensible,edin_semantics,sem_emo_sem_emo,0.865228892667801,2,2,2,1,88782.3777553201,103,A
4,4,27/10/96,19,f,244,The story wrote Ewan,Non-sensible,edin_semantics,sem_emo_sem_emo,1.42965835440555,2,1,1,1,88784.5535326212,74,A
4,4,27/10/96,19,f,245,The potatoes mashed Will,Non-sensible,edin_semantics,sem_emo_sem_emo,1.03937404103635,1,1,1,1,88786.329511079,28,A
4,4,27/10/96,19,f,246,The garlic crushed Erin,Non-sensible,edin_semantics,sem_emo_sem_emo,1.1473655278096,2,1,1,1,88788.223015759,6,A
4,4,27/10/96,19,f,247,Tom visited the hospital,Sensible,edin_semantics,sem_emo_sem_emo,1.60359375079861,2,2,2,1,88790.5634810877,91,A
4,4,27/10/96,19,f,248,Ryan knitted the socks,Sensible,edin_semantics,sem_emo_sem_emo,1.14542195429385,2,2,2,1,88792.4452903301,141,A
4,4,27/10/96,19,f,249,The ham ate Tim,Non-sensible,edin_semantics,sem_emo_sem_emo,1.42742581064522,2,2,2,1,88794.6093369143,67,A
4,4,27/10/96,19,f,250,The milk sniffed Phil,Non-sensible,edin_semantics,sem_emo_sem_emo,1.52142388888751,2,1,1,1,88796.8674774725,18,A
4,4,27/10/96,19,f,251,The fence jumped Jon,Non-sensible,edin_semantics,sem_emo_sem_emo,1.73331060486089,1,2,2,1,88799.337333802,17,A
4,4,27/10/96,19,f,252,The puzzle solved Joe,Non-sensible,edin_semantics,sem_emo_sem_emo,1.24132704376825,1,1,1,1,88801.3249510579,34,A
4,4,27/10/96,19,f,253,The dish served Kate,Non-sensible,edin_semantics,sem_emo_sem_emo,1.05331228542491,1,1,2,0,88803.1244156451,70,A
4,4,27/10/96,19,f,254,The gun carried Ryan,Non-sensible,edin_semantics,sem_emo_sem_emo,2.07443405447702,2,2,1,0,88805.9353655971,75,A
4,4,27/10/96,19,f,255,Ian labeled the box,Sensible,edin_semantics,sem_emo_sem_emo,1.46490182066918,1,1,1,1,88808.1464149087,136,A
4,4,27/10/96,19,f,256,The teeth brushed Carl,Non-sensible,edin_semantics,sem_emo_sem_emo,2.76793122958043,1,1,1,1,88811.6512671073,72,A
4,4,27/10/96,19,f,257,Jay painted the portrait,Sensible,edin_semantics,sem_emo_sem_emo,1.33350695068657,1,1,1,1,88813.7212424887,110,A
4,4,27/10/96,19,f,258,The sofa sold Carl,Non-sensible,edin_semantics,sem_emo_sem_emo,2.53520337604277,2,1,1,1,88817.0025667358,38,A
4,4,27/10/96,19,f,259,The museum visited Mary,Non-sensible,edin_semantics,sem_emo_sem_emo,1.20408644346753,1,1,1,1,88818.9431947345,16,A
4,4,27/10/96,19,f,260,The shirt ironed Josh,Non-sensible,edin_semantics,sem_emo_sem_emo,1.05118557983951,1,2,2,1,88820.7309247561,55,A
4,4,27/10/96,19,f,261,Eve ironed the trousers,Sensible,edin_semantics,sem_emo_sem_emo,4.06217671252671,2,1,1,1,88825.529474645,130,A
4,4,27/10/96,19,f,262,Hugh dialed the hotline,Sensible,edin_semantics,sem_emo_sem_emo,1.26295106300677,2,1,1,1,88827.5288601423,138,A
4,4,27/10/96,19,f,263,Owen swallowed the gum,Sensible,edin_semantics,sem_emo_sem_emo,5.11101813745336,1,2,2,1,88833.3859337235,97,A
4,4,27/10/96,19,f,264,Kate wore the dress,Sensible,edin_semantics,sem_emo_sem_emo,2.11202071349544,2,1,1,1,88836.2438386154,100,A
4,4,27/10/96,19,f,265,Luke watered the plants,Sensible,edin_semantics,sem_emo_sem_emo,2.47437497755163,2,2,2,1,88839.4546865138,129,A
4,4,27/10/96,19,f,266,The money offered Matt,Non-sensible,edin_semantics,sem_emo_sem_emo,1.56870885140961,2,2,1,0,88841.7598875293,9,A
4,4,27/10/96,19,f,267,The room searched Jen,Non-sensible,edin_semantics,sem_emo_sem_emo,2.21771936082223,2,1,1,1,88844.7236835016,10,A
4,4,27/10/96,19,f,268,Josh taught the rules,Sensible,edin_semantics,sem_emo_sem_emo,1.48836100948392,2,1,1,1,88846.9583042546,90,A
4,4,27/10/96,19,f,269,Jack drank the beer,Sensible,edin_semantics,sem_emo_sem_emo,6.62560039102391,1,2,2,1,88854.320798674,135,A
4,4,27/10/96,19,f,270,The dishes washed Mark,Non-sensible,edin_semantics,sem_emo_sem_emo,2.87417927317438,2,2,2,1,88857.931476205,57,A
4,4,27/10/96,19,f,271,The garden watered Jeff,Non-sensible,edin_semantics,sem_emo_sem_emo,1.96860070404364,2,1,1,1,88860.6365536785,54,A
4,4,27/10/96,19,f,272,The folder carried Dan,Non-sensible,edin_semantics,sem_emo_sem_emo,0.992476510335109,2,1,1,1,88862.3654655853,30,A
4,4,27/10/96,19,f,273,The jar labeled Liz,Non-sensible,edin_semantics,sem_emo_sem_emo,8.28423672083591,1,2,2,1,88871.3862573317,61,A
4,4,27/10/96,19,f,274,Ian pushed the button,Sensible,edin_semantics,sem_emo_sem_emo,1.06253848661436,1,2,2,1,88873.1857478974,101,A
4,4,27/10/96,19,f,275,The juice drank Matt,Non-sensible,edin_semantics,sem_emo_sem_emo,1.57976958069776,1,1,1,1,88875.502717475,60,A
4,4,27/10/96,19,f,276,Kate hugged the pillow,Sensible,edin_semantics,sem_emo_sem_emo,2.09725693143264,2,1,1,1,88878.3371230879,86,A
4,4,27/10/96,19,f,277,The card posted Erin,Non-sensible,edin_semantics,sem_emo_sem_emo,1.32137340729241,2,1,1,1,88880.3953465847,36,A
4,4,27/10/96,19,f,278,The lolly sucked Leah,Non-sensible,edin_semantics,sem_emo_sem_emo,3.11151621825411,1,1,1,1,88884.2530038795,12,A
4,4,27/10/96,19,f,279,Liam mixed the nuts,Sensible,edin_semantics,sem_emo_sem_emo,2.09986760608444,1,2,2,1,88887.0991867139,83,A
4,4,27/10/96,19,f,280,The movie watched Ella,Non-sensible,edin_semantics,sem_emo_sem_emo,3.43865876749624,2,2,2,1,88891.2744146187,33,A
4,4,27/10/96,19,f,281,Adam chewed the fat,Sensible,edin_semantics,sem_emo_sem_emo,2.31169306419906,1,1,1,1,88894.3323125831,106,A
4,4,27/10/96,19,f,282,The bushes trimmed Jon,Non-sensible,edin_semantics,sem_emo_sem_emo,10.2247608057514,2,1,1,1,88905.2937457985,32,A
4,4,27/10/96,19,f,283,The paper cut Jon,Non-sensible,edin_semantics,sem_emo_sem_emo,11.3532970832312,1,1,1,1,88917.3842233147,20,A
4,4,27/10/96,19,f,284,The number dialed Tom,Non-sensible,edin_semantics,sem_emo_sem_emo,2.05013938565389,2,2,2,1,88920.1716127298,63,A
4,4,27/10/96,19,f,285,Tom whisked the cream,Sensible,edin_semantics,sem_emo_sem_emo,0.991846612931113,2,2,2,1,88921.9005146942,137,A
4,4,27/10/96,19,f,286,Anna polished the trophy,Sensible,edin_semantics,sem_emo_sem_emo,6.8600729706086,1,1,1,1,88929.498251746,104,A
4,4,27/10/96,19,f,287,The kettle got Lily,Non-sensible,edin_semantics,sem_emo_sem_emo,3.60290580274886,2,2,2,1,88933.8381214945,13,A
4,4,27/10/96,19,f,288,Jane licked the plate,Sensible,edin_semantics,sem_emo_sem_emo,2.14433278341312,1,1,1,1,88936.719581471,96,A
4,4,27/10/96,19,f,289,Luke fixed the radio,Sensible,edin_semantics,sem_emo_sem_emo,1.81492722182884,2,1,1,1,88939.2717574395,112,A
4,4,27/10/96,19,f,290,Ryan stroked the blanket,Sensible,edin_semantics,sem_emo_sem_emo,1.73254151422589,1,1,1,1,88941.741602223,116,A
4,4,27/10/96,19,f,291,Phil solved the problem,Sensible,edin_semantics,sem_emo_sem_emo,1.14478564244928,1,2,2,1,88943.6234422547,109,A
4,4,27/10/96,19,f,292,The scarf knitted Tom,Non-sensible,edin_semantics,sem_emo_sem_emo,1.88563256582711,2,1,1,1,88946.2461583955,66,A
4,4,27/10/96,19,f,293,The picture painted Ryan,Non-sensible,edin_semantics,sem_emo_sem_emo,1.16815118052182,2,2,2,1,88948.1514473529,35,A
4,4,27/10/96,19,f,294,The letter typed Phil,Non-sensible,edin_semantics,sem_emo_sem_emo,2.59081780185807,2,2,2,1,88951.4798676574,49,A
4,4,27/10/96,19,f,295,The wine stored Leo,Non-sensible,edin_semantics,sem_emo_sem_emo,2.16778523704852,1,1,1,1,88954.3848849635,52,A
4,4,27/10/96,19,f,296,Bill trimmed the hair,Sensible,edin_semantics,sem_emo_sem_emo,3.06181012761954,2,2,2,1,88958.1837196533,107,A
4,4,27/10/96,19,f,297,Liz weighed the sugar,Sensible,edin_semantics,sem_emo_sem_emo,0.897162831694004,1,2,2,1,88959.818520267,139,A
4,4,27/10/96,19,f,298,Ben climbed the stairs,Sensible,edin_semantics,sem_emo_sem_emo,0.85087884159293,1,2,2,1,88961.406316229,143,A
4,4,27/10/96,19,f,299,Zoe paid the debt,Sensible,edin_semantics,sem_emo_sem_emo,2.65052271222521,1,1,1,1,88964.7934895419,134,A
4,4,27/10/96,19,f,300,Joe iced the donut,Sensible,edin_semantics,sem_emo_sem_emo,1.48639562689641,2,2,2,1,88967.0163988213,119,A
