subject_column,AssignedList_column,subject_dob_column,subject_age_column,subject_gender_column,trialnum_column,Stim_column,Type_column,Experiment_column,OrderGroup_column,ReactionTime_column,StimSide_column,StimPosition_column,Response_column,Valid_column,TrialEndSecs_column,PairID_column,List_column
40,4,29/11/91,24,f,1,Jeff watered the garden,Sensible,edin_semantics,sem_emo_sem_emo,4.13053661864251,1,2,2,1,1311579.1442882,54,B
40,4,29/11/91,24,f,2,The gift posted Jack,Non-sensible,edin_semantics,sem_emo_sem_emo,0.640526137547567,2,1,1,1,1311580.53205196,111,B
40,4,29/11/91,24,f,3,Tom dialed the number,Sensible,edin_semantics,sem_emo_sem_emo,0.629618392558768,2,1,1,1,1311581.9081174,63,B
40,4,29/11/91,24,f,4,Max lent the bucket,Sensible,edin_semantics,sem_emo_sem_emo,0.641784649575129,1,1,1,1,1311583.2959235,19,B
40,4,29/11/91,24,f,5,Jake dusted the shelf,Sensible,edin_semantics,sem_emo_sem_emo,0.632684171199799,1,1,1,1,1311584.67200273,47,B
40,4,29/11/91,24,f,6,The salt passed Leo,Non-sensible,edin_semantics,sem_emo_sem_emo,0.632396163186058,1,2,2,1,1311586.04803064,118,B
40,4,29/11/91,24,f,7,The report filed Ian,Non-sensible,edin_semantics,sem_emo_sem_emo,0.550576850073412,1,1,1,1,1311587.34176938,99,B
40,4,29/11/91,24,f,8,The carrots grated Tom,Non-sensible,edin_semantics,sem_emo_sem_emo,0.632833948358893,2,2,2,1,1311588.71782776,140,B
40,4,29/11/91,24,f,9,The bowl dented Ian,Non-sensible,edin_semantics,sem_emo_sem_emo,0.526958903996274,2,2,2,1,1311589.98805504,146,B
40,4,29/11/91,24,f,10,The debt paid Zoe,Non-sensible,edin_semantics,sem_emo_sem_emo,0.538476661778986,2,2,2,1,1311591.26999058,134,B
40,4,29/11/91,24,f,11,Kate lifted the box,Sensible,edin_semantics,sem_emo_sem_emo,0.879905759124085,1,1,1,1,1311592.89306882,69,B
40,4,29/11/91,24,f,12,Jane punched the wall,Sensible,edin_semantics,sem_emo_sem_emo,0.585725382668898,2,2,1,0,1311594.22208502,50,B
40,4,29/11/91,24,f,13,The onion sliced Liam,Non-sensible,edin_semantics,sem_emo_sem_emo,0.702785275643691,1,2,2,1,1311595.6686762,78,B
40,4,29/11/91,24,f,14,The hospital visited Tom,Non-sensible,edin_semantics,sem_emo_sem_emo,0.53854754101485,1,1,1,1,1311596.95064606,91,B
40,4,29/11/91,24,f,15,Andy grated the cheese,Sensible,edin_semantics,sem_emo_sem_emo,0.526571472175419,1,1,1,1,1311598.22084736,65,B
40,4,29/11/91,24,f,16,Max kissed the mirror,Sensible,edin_semantics,sem_emo_sem_emo,0.691088554915041,1,1,1,1,1311599.65570782,23,B
40,4,29/11/91,24,f,17,Ryan carried the gun,Sensible,edin_semantics,sem_emo_sem_emo,0.856127772945911,2,1,1,1,1311601.25526946,75,B
40,4,29/11/91,24,f,18,The monitor punched Erin,Non-sensible,edin_semantics,sem_emo_sem_emo,0.644508539000526,1,1,1,1,1311602.64305278,125,B
40,4,29/11/91,24,f,19,Lily dented the lorry,Sensible,edin_semantics,sem_emo_sem_emo,0.514843321172521,2,1,1,1,1311603.90149193,71,B
40,4,29/11/91,24,f,20,The candy sucked Sam,Non-sensible,edin_semantics,sem_emo_sem_emo,0.503599459538236,1,1,1,1,1311605.14823917,87,B
40,4,29/11/91,24,f,21,The rope pulled Andy,Non-sensible,edin_semantics,sem_emo_sem_emo,0.573991137789562,2,2,2,1,1311606.46547335,148,B
40,4,29/11/91,24,f,22,Will mashed the potatoes,Sensible,edin_semantics,sem_emo_sem_emo,0.513056259602308,2,2,2,1,1311607.72408761,28,B
40,4,29/11/91,24,f,23,Ewan wrote the story,Sensible,edin_semantics,sem_emo_sem_emo,0.477942044381052,2,2,2,1,1311608.94704339,74,B
40,4,29/11/91,24,f,24,The desk wiped Lucy,Non-sensible,edin_semantics,sem_emo_sem_emo,0.867574651027098,1,1,2,0,1311610.55831298,115,B
40,4,29/11/91,24,f,25,Mary iced the cake,Sensible,edin_semantics,sem_emo_sem_emo,2.89082825742662,2,2,2,1,1311614.19251833,44,B
40,4,29/11/91,24,f,26,Tim cleaned the floor,Sensible,edin_semantics,sem_emo_sem_emo,0.726886869873852,1,1,1,1,1311615.66268095,5,B
40,4,29/11/91,24,f,27,The hair trimmed Bill,Non-sensible,edin_semantics,sem_emo_sem_emo,0.491430316120386,2,1,1,1,1311616.8975926,107,B
40,4,29/11/91,24,f,28,Jen weighed the flour,Sensible,edin_semantics,sem_emo_sem_emo,0.80905769392848,1,2,2,1,1311618.45006107,64,B
40,4,29/11/91,24,f,29,The opera watched Adam,Non-sensible,edin_semantics,sem_emo_sem_emo,0.644618225749582,1,2,2,1,1311619.83792874,108,B
40,4,29/11/91,24,f,30,The pan washed Beth,Non-sensible,edin_semantics,sem_emo_sem_emo,0.621078214840963,2,2,2,1,1311621.20222209,132,B
40,4,29/11/91,24,f,31,Ben chewed the toffee,Sensible,edin_semantics,sem_emo_sem_emo,0.738311297725886,1,1,1,1,1311622.68415968,31,B
40,4,29/11/91,24,f,32,Kate built the house,Sensible,edin_semantics,sem_emo_sem_emo,0.667880812194198,2,2,2,1,1311624.09544774,46,B
40,4,29/11/91,24,f,33,The garage tidied Erin,Non-sensible,edin_semantics,sem_emo_sem_emo,0.550129764014855,2,1,1,1,1311625.38914703,77,B
40,4,29/11/91,24,f,34,The ticket took Tim,Non-sensible,edin_semantics,sem_emo_sem_emo,0.656232200097293,1,2,2,1,1311626.78872233,128,B
40,4,29/11/91,24,f,35,Phil passed the towels,Sensible,edin_semantics,sem_emo_sem_emo,0.608845568494871,2,1,1,1,1311628.14126123,43,B
40,4,29/11/91,24,f,36,The invite mailed Ian,Non-sensible,edin_semantics,sem_emo_sem_emo,0.527017916785553,2,1,1,1,1311629.41148883,89,B
40,4,29/11/91,24,f,37,Jon trimmed the bushes,Sensible,edin_semantics,sem_emo_sem_emo,0.915148904779926,1,2,2,1,1311631.06981534,32,B
40,4,29/11/91,24,f,38,Jen fixed the laptop,Sensible,edin_semantics,sem_emo_sem_emo,1.25627588224597,1,1,1,1,1311633.06922618,37,B
40,4,29/11/91,24,f,39,Luke climbed the hill,Sensible,edin_semantics,sem_emo_sem_emo,0.70332248439081,1,2,2,1,1311634.51581158,68,B
40,4,29/11/91,24,f,40,The hedge jumped Sara,Non-sensible,edin_semantics,sem_emo_sem_emo,0.773977795848623,1,2,2,1,1311636.03303883,92,B
40,4,29/11/91,24,f,41,The trousers ironed Eve,Non-sensible,edin_semantics,sem_emo_sem_emo,0.46758786495775,1,2,2,1,1311637.24441848,130,B
40,4,29/11/91,24,f,42,The wallet carried Leo,Non-sensible,edin_semantics,sem_emo_sem_emo,0.479702165117487,1,2,2,1,1311638.46762443,150,B
40,4,29/11/91,24,f,43,Liz labeled the jar,Sensible,edin_semantics,sem_emo_sem_emo,0.538578651146963,2,1,1,1,1311639.74955163,61,B
40,4,29/11/91,24,f,44,The perfume sniffed Tim,Non-sensible,edin_semantics,sem_emo_sem_emo,0.52648776373826,2,1,1,1,1311641.01978051,93,B
40,4,29/11/91,24,f,45,The car lent Fred,Non-sensible,edin_semantics,sem_emo_sem_emo,0.538527014898136,2,2,2,1,1311642.30170002,94,B
40,4,29/11/91,24,f,46,The ribbon cut Lucy,Non-sensible,edin_semantics,sem_emo_sem_emo,0.550263504963368,2,1,1,1,1311643.59551253,95,B
40,4,29/11/91,24,f,47,The ice crushed Josh,Non-sensible,edin_semantics,sem_emo_sem_emo,0.491663801716641,2,1,1,1,1311644.83038665,81,B
40,4,29/11/91,24,f,48,Bill counted the sheets,Sensible,edin_semantics,sem_emo_sem_emo,0.632447157986462,1,2,2,1,1311646.20642964,48,B
40,4,29/11/91,24,f,49,Carl brushed the teeth,Sensible,edin_semantics,sem_emo_sem_emo,0.444323033327237,1,2,2,1,1311647.39430456,72,B
40,4,29/11/91,24,f,50,The button pushed Ian,Non-sensible,edin_semantics,sem_emo_sem_emo,0.550125594716519,1,1,1,1,1311648.68801925,101,B
40,4,29/11/91,24,f,51,Josh ironed the shirt,Sensible,edin_semantics,sem_emo_sem_emo,0.57388209248893,2,1,1,1,1311650.00528261,55,B
40,4,29/11/91,24,f,52,The nuts mixed Liam,Non-sensible,edin_semantics,sem_emo_sem_emo,0.585512102814391,1,1,2,0,1311651.334328,83,B
40,4,29/11/91,24,f,53,Josh squeezed the ball,Sensible,edin_semantics,sem_emo_sem_emo,0.703463922720402,1,1,2,0,1311652.78090218,1,B
40,4,29/11/91,24,f,54,The hair brushed Dan,Non-sensible,edin_semantics,sem_emo_sem_emo,0.538364729844034,1,1,2,0,1311654.06288583,147,B
40,4,29/11/91,24,f,55,The dress wore Kate,Non-sensible,edin_semantics,sem_emo_sem_emo,0.938579549081624,2,2,1,0,1311655.74472477,100,B
40,4,29/11/91,24,f,56,Jon cut the paper,Sensible,edin_semantics,sem_emo_sem_emo,1.04458801378496,1,2,2,1,1311657.53243876,20,B
40,4,29/11/91,24,f,57,Joe solved the puzzle,Sensible,edin_semantics,sem_emo_sem_emo,0.76212167670019,2,2,2,1,1311659.03788685,34,B
40,4,29/11/91,24,f,58,The rope pulled Emma,Non-sensible,edin_semantics,sem_emo_sem_emo,0.538723617326468,2,2,2,1,1311660.31983491,120,B
40,4,29/11/91,24,f,59,The hotline dialed Hugh,Non-sensible,edin_semantics,sem_emo_sem_emo,0.691585994558409,1,2,2,1,1311661.75472936,138,B
40,4,29/11/91,24,f,60,Hugh pulled the lever,Sensible,edin_semantics,sem_emo_sem_emo,0.538655624492094,2,1,1,1,1311663.03669409,45,B
40,4,29/11/91,24,f,61,The poster read Luke,Non-sensible,edin_semantics,sem_emo_sem_emo,0.808727350551635,1,1,2,0,1311664.58913049,79,B
40,4,29/11/91,24,f,62,The bath cleaned Jack,Non-sensible,edin_semantics,sem_emo_sem_emo,1.06768959783949,2,2,2,1,1311666.40035979,80,B
40,4,29/11/91,24,f,63,Lily got the kettle,Sensible,edin_semantics,sem_emo_sem_emo,0.574157913215458,2,1,1,1,1311667.71760166,13,B
40,4,29/11/91,24,f,64,Mary visited the museum,Sensible,edin_semantics,sem_emo_sem_emo,0.609158592997119,2,2,2,1,1311669.07017102,16,B
40,4,29/11/91,24,f,65,Erin crushed the garlic,Sensible,edin_semantics,sem_emo_sem_emo,1.73833695542999,1,2,2,1,1311671.55174107,6,B
40,4,29/11/91,24,f,66,The rice stored Fred,Non-sensible,edin_semantics,sem_emo_sem_emo,0.632655306253582,1,1,1,1,1311672.92779047,127,B
40,4,29/11/91,24,f,67,The socks knitted Ryan,Non-sensible,edin_semantics,sem_emo_sem_emo,0.621062178863212,2,1,1,1,1311674.29213706,141,B
40,4,29/11/91,24,f,68,Tim ate the ham,Sensible,edin_semantics,sem_emo_sem_emo,0.503680602414534,2,1,1,1,1311675.53879578,67,B
40,4,29/11/91,24,f,69,Leah sucked the lolly,Sensible,edin_semantics,sem_emo_sem_emo,0.867804287932813,1,2,2,1,1311677.15004676,12,B
40,4,29/11/91,24,f,70,The radio fixed Luke,Non-sensible,edin_semantics,sem_emo_sem_emo,0.550722778541967,1,2,2,1,1311678.4437823,112,B
40,4,29/11/91,24,f,71,Liz scrubbed the bowl,Sensible,edin_semantics,sem_emo_sem_emo,0.48018292686902,1,2,2,1,1311679.66693981,56,B
40,4,29/11/91,24,f,72,Joe wore the jumper,Sensible,edin_semantics,sem_emo_sem_emo,0.538571274606511,1,1,1,1,1311680.94891673,25,B
40,4,29/11/91,24,f,73,The steak ate Mike,Non-sensible,edin_semantics,sem_emo_sem_emo,0.55052008247003,1,2,2,1,1311682.24263815,142,B
40,4,29/11/91,24,f,74,The party cancelled Phil,Non-sensible,edin_semantics,sem_emo_sem_emo,0.585813901852816,1,2,2,1,1311683.57166911,82,B
40,4,29/11/91,24,f,75,The rose kissed Hugh,Non-sensible,edin_semantics,sem_emo_sem_emo,0.514970647636801,1,2,2,1,1311684.83010634,98,B
40,4,29/11/91,24,f,76,Erin posted the card,Sensible,edin_semantics,sem_emo_sem_emo,0.997340254951268,2,2,2,1,1311686.57077109,36,B
40,4,29/11/91,24,f,77,Jon polished the coins,Sensible,edin_semantics,sem_emo_sem_emo,0.515225300565362,2,1,1,1,1311687.82923718,29,B
40,4,29/11/91,24,f,78,The kettle carried John,Non-sensible,edin_semantics,sem_emo_sem_emo,0.914652106817812,1,1,1,1,1311689.48750468,105,B
40,4,29/11/91,24,f,79,The curtains measured Rob,Non-sensible,edin_semantics,sem_emo_sem_emo,0.750457349233329,2,2,2,1,1311690.98120892,126,B
40,4,29/11/91,24,f,80,Dan whisked the eggs,Sensible,edin_semantics,sem_emo_sem_emo,1.37374629895203,2,2,2,1,1311693.09829543,62,B
40,4,29/11/91,24,f,81,Carl sold the sofa,Sensible,edin_semantics,sem_emo_sem_emo,0.526942867785692,2,2,2,1,1311694.36840821,38,B
40,4,29/11/91,24,f,82,The house dusted Alex,Non-sensible,edin_semantics,sem_emo_sem_emo,0.456463312031701,2,2,2,1,1311695.56809691,122,B
40,4,29/11/91,24,f,83,The fat chewed Adam,Non-sensible,edin_semantics,sem_emo_sem_emo,0.738934139022604,1,2,2,1,1311697.05004862,106,B
40,4,29/11/91,24,f,84,The shed built Rose,Non-sensible,edin_semantics,sem_emo_sem_emo,0.749986529583111,1,1,1,1,1311698.54362264,121,B
40,4,29/11/91,24,f,85,Phil chopped the herbs,Sensible,edin_semantics,sem_emo_sem_emo,0.456183642847463,1,1,1,1,1311699.74325779,27,B
40,4,29/11/91,24,f,86,The message typed Eve,Non-sensible,edin_semantics,sem_emo_sem_emo,0.585831220960245,1,2,2,1,1311701.07226533,124,B
40,4,29/11/91,24,f,87,The trophy polished Anna,Non-sensible,edin_semantics,sem_emo_sem_emo,0.597502283519134,1,2,2,1,1311702.41306133,104,B
40,4,29/11/91,24,f,88,Matt pushed the trolley,Sensible,edin_semantics,sem_emo_sem_emo,0.926834399811924,2,2,2,1,1311704.08313716,26,B
40,4,29/11/91,24,f,89,Dan carried the folder,Sensible,edin_semantics,sem_emo_sem_emo,0.762051117839292,1,2,2,1,1311705.58856152,30,B
40,4,29/11/91,24,f,90,Jon jumped the fence,Sensible,edin_semantics,sem_emo_sem_emo,0.562015710165724,1,1,1,1,1311706.89405343,17,B
40,4,29/11/91,24,f,91,The carrots chopped Fred,Non-sensible,edin_semantics,sem_emo_sem_emo,1.07945815986022,1,2,2,1,1311708.71707279,102,B
40,4,29/11/91,24,f,92,The box labeled Ian,Non-sensible,edin_semantics,sem_emo_sem_emo,0.5388432466425,1,2,2,1,1311709.99901154,136,B
40,4,29/11/91,24,f,93,The radio got Ben,Non-sensible,edin_semantics,sem_emo_sem_emo,0.527244346449152,1,2,2,1,1311711.26920257,88,B
40,4,29/11/91,24,f,94,The shoes counted Lucy,Non-sensible,edin_semantics,sem_emo_sem_emo,0.820798353292048,2,1,1,1,1311712.83343575,123,B
40,4,29/11/91,24,f,95,The stairs climbed Ben,Non-sensible,edin_semantics,sem_emo_sem_emo,0.903360457858071,2,1,1,1,1311714.48000461,143,B
40,4,29/11/91,24,f,96,Sam tidied the room,Sensible,edin_semantics,sem_emo_sem_emo,0.691731922794133,1,2,2,1,1311715.91487052,2,B
40,4,29/11/91,24,f,97,The beer drank Jack,Non-sensible,edin_semantics,sem_emo_sem_emo,0.585843408247456,1,1,1,1,1311717.24389057,135,B
40,4,29/11/91,24,f,98,Jen searched the room,Sensible,edin_semantics,sem_emo_sem_emo,0.832298471359536,2,2,2,1,1311718.81988686,10,B
40,4,29/11/91,24,f,99,The internet searched Max,Non-sensible,edin_semantics,sem_emo_sem_emo,0.750188905047253,1,1,1,1,1311720.31366358,85,B
40,4,29/11/91,24,f,100,Rob mailed the parcel,Sensible,edin_semantics,sem_emo_sem_emo,5.90189155261032,2,2,2,1,1311726.95862466,14,B
40,4,29/11/91,24,f,101,Beth wiped the table,Sensible,edin_semantics,sem_emo_sem_emo,0.455662790453061,2,2,2,1,1311728.15823896,40,B
40,4,29/11/91,24,f,102,Mike paid the bill,Sensible,edin_semantics,sem_emo_sem_emo,0.797356162685901,1,1,1,1,1311729.69899948,59,B
40,4,29/11/91,24,f,103,John described the pen,Sensible,edin_semantics,sem_emo_sem_emo,0.515316064702347,2,2,2,1,1311730.95740367,42,B
40,4,29/11/91,24,f,104,Amy measured the thread,Sensible,edin_semantics,sem_emo_sem_emo,0.714617661200464,1,1,2,0,1311732.41581184,51,B
40,4,29/11/91,24,f,105,Kate served the dish,Sensible,edin_semantics,sem_emo_sem_emo,0.63281342224218,1,2,2,1,1311733.7918731,70,B
40,4,29/11/91,24,f,106,Matt kicked the bike,Sensible,edin_semantics,sem_emo_sem_emo,0.585792413447052,2,1,1,1,1311735.12087648,39,B
40,4,29/11/91,24,f,107,The lemon squeezed Jay,Non-sensible,edin_semantics,sem_emo_sem_emo,0.597418895922601,2,2,2,1,1311736.4616109,76,B
40,4,29/11/91,24,f,108,The blanket stroked Ryan,Non-sensible,edin_semantics,sem_emo_sem_emo,0.762060739565641,2,2,2,1,1311737.96711705,116,B
40,4,29/11/91,24,f,109,Mark washed the dishes,Sensible,edin_semantics,sem_emo_sem_emo,0.644454657565802,1,1,1,1,1311739.35489139,57,B
40,4,29/11/91,24,f,110,Lara filed the papers,Sensible,edin_semantics,sem_emo_sem_emo,0.632596293464303,2,2,2,1,1311740.73095202,24,B
40,4,29/11/91,24,f,111,Leo stored the wine,Sensible,edin_semantics,sem_emo_sem_emo,0.726757939672098,1,2,2,1,1311742.20117942,52,B
40,4,29/11/91,24,f,112,The gum swallowed Owen,Non-sensible,edin_semantics,sem_emo_sem_emo,0.573831097688526,1,1,1,1,1311743.51835458,97,B
40,4,29/11/91,24,f,113,Ryan entered the room,Sensible,edin_semantics,sem_emo_sem_emo,0.679601907264441,1,2,2,1,1311744.9414375,58,B
40,4,29/11/91,24,f,114,Matt offered the money,Sensible,edin_semantics,sem_emo_sem_emo,0.549919049721211,1,1,1,1,1311746.23516566,9,B
40,4,29/11/91,24,f,115,The sugar weighed Liz,Non-sensible,edin_semantics,sem_emo_sem_emo,0.585490935249254,1,1,1,1,1311747.5641979,139,B
40,4,29/11/91,24,f,116,The crate lifted Amy,Non-sensible,edin_semantics,sem_emo_sem_emo,0.750360811827704,1,2,2,1,1311749.05786172,144,B
40,4,29/11/91,24,f,117,Rob stroked the fur,Sensible,edin_semantics,sem_emo_sem_emo,9.75940003222786,2,1,1,1,1311759.56067221,41,B
40,4,29/11/91,24,f,118,Liz sliced the tomato,Sensible,edin_semantics,sem_emo_sem_emo,0.831135534448549,2,1,1,1,1311761.13657164,3,B
40,4,29/11/91,24,f,119,Phil typed the letter,Sensible,edin_semantics,sem_emo_sem_emo,0.632775897625834,2,1,1,1,1311762.51307743,49,B
40,4,29/11/91,24,f,120,The plate licked Jane,Non-sensible,edin_semantics,sem_emo_sem_emo,0.562298265984282,2,2,2,1,1311763.81813027,96,B
40,4,29/11/91,24,f,121,The office entered Joe,Non-sensible,edin_semantics,sem_emo_sem_emo,0.561554512474686,2,1,1,1,1311765.12360069,133,B
40,4,29/11/91,24,f,122,The dessert served Fred,Non-sensible,edin_semantics,sem_emo_sem_emo,1.66769992490299,1,1,1,1,1311767.53464853,145,B
40,4,29/11/91,24,f,123,Ian cancelled the plans,Sensible,edin_semantics,sem_emo_sem_emo,0.62049770867452,2,1,1,1,1311768.89894188,7,B
40,4,29/11/91,24,f,124,Ryan painted the picture,Sensible,edin_semantics,sem_emo_sem_emo,0.456218601204455,2,1,1,1,1311770.09860589,35,B
40,4,29/11/91,24,f,125,Luke swallowed the pill,Sensible,edin_semantics,sem_emo_sem_emo,0.60927822208032,2,2,2,1,1311771.45116916,22,B
40,4,29/11/91,24,f,126,The donut iced Joe,Non-sensible,edin_semantics,sem_emo_sem_emo,2.43209648085758,1,1,1,1,1311774.62664883,119,B
40,4,29/11/91,24,f,127,The portrait painted Jay,Non-sensible,edin_semantics,sem_emo_sem_emo,0.562053555389866,2,2,2,1,1311775.93212535,110,B
40,4,29/11/91,24,f,128,The plants watered Luke,Non-sensible,edin_semantics,sem_emo_sem_emo,0.679590361425653,1,1,1,1,1311777.3552259,129,B
40,4,29/11/91,24,f,129,The report wrote Alex,Non-sensible,edin_semantics,sem_emo_sem_emo,1.17364578461275,1,1,1,1,1311779.27236745,149,B
40,4,29/11/91,24,f,130,The bed sold Jay,Non-sensible,edin_semantics,sem_emo_sem_emo,0.785572526510805,2,1,1,1,1311780.80124395,113,B
40,4,29/11/91,24,f,131,Eve taught the lesson,Sensible,edin_semantics,sem_emo_sem_emo,1.11480874731205,1,1,1,1,1311782.65951222,15,B
40,4,29/11/91,24,f,132,The turnip mashed Ella,Non-sensible,edin_semantics,sem_emo_sem_emo,0.479631285648793,1,1,1,1,1311783.88267872,103,B
40,4,29/11/91,24,f,133,The rules taught Josh,Non-sensible,edin_semantics,sem_emo_sem_emo,0.715000602882355,2,2,2,1,1311785.34108753,90,B
40,4,29/11/91,24,f,134,Matt drank the juice,Sensible,edin_semantics,sem_emo_sem_emo,0.503491697367281,2,2,2,1,1311786.58774817,60,B
40,4,29/11/91,24,f,135,Ella watched the movie,Sensible,edin_semantics,sem_emo_sem_emo,0.72623965353705,1,1,1,1,1311788.05790919,33,B
40,4,29/11/91,24,f,136,The church described Erin,Non-sensible,edin_semantics,sem_emo_sem_emo,1.23223554575816,1,1,1,1,1311790.0337736,117,B
40,4,29/11/91,24,f,137,The pot scrubbed Josh,Non-sensible,edin_semantics,sem_emo_sem_emo,0.60915089584887,1,1,1,1,1311791.3863048,131,B
40,4,29/11/91,24,f,138,Jack mixed the fruits,Sensible,edin_semantics,sem_emo_sem_emo,0.715180207043886,1,2,2,1,1311792.84469565,8,B
40,4,29/11/91,24,f,139,Tom knitted the scarf,Sensible,edin_semantics,sem_emo_sem_emo,0.891446287976578,1,2,2,1,1311794.47951198,66,B
40,4,29/11/91,24,f,140,Amy hugged the tree,Sensible,edin_semantics,sem_emo_sem_emo,1.39741074969061,2,1,1,1,1311796.62000765,11,B
40,4,29/11/91,24,f,141,Tim pulled the handle,Sensible,edin_semantics,sem_emo_sem_emo,0.444421495078132,2,1,1,1,1311797.80791143,73,B
40,4,29/11/91,24,f,142,Sean read the book,Sensible,edin_semantics,sem_emo_sem_emo,0.902493226341903,1,2,2,1,1311799.45448478,4,B
40,4,29/11/91,24,f,143,Phil sniffed the milk,Sensible,edin_semantics,sem_emo_sem_emo,0.491367134032771,1,2,2,1,1311800.68945223,18,B
40,4,29/11/91,24,f,144,Beth took the photo,Sensible,edin_semantics,sem_emo_sem_emo,0.702965841861442,2,1,1,1,1311802.13601262,53,B
40,4,29/11/91,24,f,145,The cream whisked Tom,Non-sensible,edin_semantics,sem_emo_sem_emo,0.703213118482381,1,1,2,0,1311803.58264453,137,B
40,4,29/11/91,24,f,146,The door kicked Max,Non-sensible,edin_semantics,sem_emo_sem_emo,0.585598056204617,2,2,1,0,1311804.91164951,114,B
40,4,29/11/91,24,f,147,The problem solved Phil,Non-sensible,edin_semantics,sem_emo_sem_emo,1.30250310455449,1,1,1,1,1311806.95810444,109,B
40,4,29/11/91,24,f,148,The sweets offered Tom,Non-sensible,edin_semantics,sem_emo_sem_emo,0.66767715383321,2,2,2,1,1311808.36945408,84,B
40,4,29/11/91,24,f,149,The pillow hugged Kate,Non-sensible,edin_semantics,sem_emo_sem_emo,0.76219672546722,1,2,2,1,1311809.87488262,86,B
40,4,29/11/91,24,f,150,Will licked the spoon,Sensible,edin_semantics,sem_emo_sem_emo,0.738610210362822,2,1,1,1,1311811.3567798,21,B
40,4,29/11/91,24,f,151,The room searched Jen,Non-sensible,edin_semantics,sem_emo_sem_emo,3.36610574577935,1,2,2,1,1311817.67252647,10,A
40,4,29/11/91,24,f,152,Erin punched the monitor,Sensible,edin_semantics,sem_emo_sem_emo,1.37050476460718,1,1,1,1,1311819.7896226,125,A
40,4,29/11/91,24,f,153,The photo took Beth,Non-sensible,edin_semantics,sem_emo_sem_emo,0.585108955623582,2,1,1,1,1311821.11856953,53,A
40,4,29/11/91,24,f,154,Josh crushed the ice,Sensible,edin_semantics,sem_emo_sem_emo,0.866323836613446,1,1,1,1,1311822.72983398,81,A
40,4,29/11/91,24,f,155,John carried the kettle,Sensible,edin_semantics,sem_emo_sem_emo,0.632069347891957,2,1,1,1,1311824.10588499,105,A
40,4,29/11/91,24,f,156,Tom whisked the cream,Sensible,edin_semantics,sem_emo_sem_emo,0.455726614221931,2,1,1,1,1311825.30553104,137,A
40,4,29/11/91,24,f,157,The handle pulled Tim,Non-sensible,edin_semantics,sem_emo_sem_emo,0.937836757628247,1,1,1,1,1311826.98738281,73,A
40,4,29/11/91,24,f,158,Joe iced the donut,Sensible,edin_semantics,sem_emo_sem_emo,0.596873989561573,2,1,1,1,1311828.32816341,119,A
40,4,29/11/91,24,f,159,Mike ate the steak,Sensible,edin_semantics,sem_emo_sem_emo,0.620553193613887,2,2,2,1,1311829.69247568,142,A
40,4,29/11/91,24,f,160,Fred stored the rice,Sensible,edin_semantics,sem_emo_sem_emo,1.16142051480711,1,1,2,0,1311831.5977765,127,A
40,4,29/11/91,24,f,161,The bike kicked Matt,Non-sensible,edin_semantics,sem_emo_sem_emo,1.4185876827687,2,1,2,0,1311833.76183046,39,A
40,4,29/11/91,24,f,162,Jay painted the portrait,Sensible,edin_semantics,sem_emo_sem_emo,1.08999290550128,2,2,2,1,1311835.5965584,110,A
40,4,29/11/91,24,f,163,The dishes washed Mark,Non-sensible,edin_semantics,sem_emo_sem_emo,0.796036072308198,1,1,1,1,1311837.13730513,57,A
40,4,29/11/91,24,f,164,Bill trimmed the hair,Sensible,edin_semantics,sem_emo_sem_emo,0.608292965218425,2,1,1,1,1311838.48979848,107,A
40,4,29/11/91,24,f,165,Tom visited the hospital,Sensible,edin_semantics,sem_emo_sem_emo,0.455361312255263,2,1,1,1,1311839.68946153,91,A
40,4,29/11/91,24,f,166,Luke read the poster,Sensible,edin_semantics,sem_emo_sem_emo,0.479087982792407,2,1,1,1,1311840.9125966,79,A
40,4,29/11/91,24,f,167,Ryan knitted the socks,Sensible,edin_semantics,sem_emo_sem_emo,0.420526124769822,2,1,1,1,1311842.07698091,141,A
40,4,29/11/91,24,f,168,The teeth brushed Carl,Non-sensible,edin_semantics,sem_emo_sem_emo,1.82002573460341,1,2,2,1,1311844.64090908,72,A
40,4,29/11/91,24,f,169,Luke fixed the radio,Sensible,edin_semantics,sem_emo_sem_emo,0.584430629154667,1,2,2,1,1311845.96990219,112,A
40,4,29/11/91,24,f,170,The towels passed Phil,Non-sensible,edin_semantics,sem_emo_sem_emo,0.644018155522645,1,1,1,1,1311847.35774229,43,A
40,4,29/11/91,24,f,171,The floor cleaned Tim,Non-sensible,edin_semantics,sem_emo_sem_emo,0.550050866557285,1,1,1,1,1311848.65151086,5,A
40,4,29/11/91,24,f,172,The plans cancelled Ian,Non-sensible,edin_semantics,sem_emo_sem_emo,0.726164283929393,2,1,1,1,1311850.12166674,7,A
40,4,29/11/91,24,f,173,The cake iced Mary,Non-sensible,edin_semantics,sem_emo_sem_emo,0.973344177938998,1,2,2,1,1311851.83875171,44,A
40,4,29/11/91,24,f,174,Owen swallowed the gum,Sensible,edin_semantics,sem_emo_sem_emo,0.608742296230048,1,1,1,1,1311853.1912951,97,A
40,4,29/11/91,24,f,175,Tom offered the sweets,Sensible,edin_semantics,sem_emo_sem_emo,1.63187755597755,1,2,2,1,1311855.56702763,84,A
40,4,29/11/91,24,f,176,Fred lent the car,Sensible,edin_semantics,sem_emo_sem_emo,0.538107831729576,1,2,2,1,1311856.848976,94,A
40,4,29/11/91,24,f,177,Jack drank the beer,Sensible,edin_semantics,sem_emo_sem_emo,0.561773565365002,1,1,2,0,1311858.15448427,135,A
40,4,29/11/91,24,f,178,Ian labeled the box,Sensible,edin_semantics,sem_emo_sem_emo,0.924976459005848,2,2,2,1,1311859.82455529,136,A
40,4,29/11/91,24,f,179,The room entered Ryan,Non-sensible,edin_semantics,sem_emo_sem_emo,0.701550176367164,1,2,2,1,1311861.27121125,58,A
40,4,29/11/91,24,f,180,Phil cancelled the party,Sensible,edin_semantics,sem_emo_sem_emo,0.619911429472268,2,2,2,1,1311862.63550748,82,A
40,4,29/11/91,24,f,181,The bushes trimmed Jon,Non-sensible,edin_semantics,sem_emo_sem_emo,0.890310933347791,1,2,2,1,1311864.27034209,32,A
40,4,29/11/91,24,f,182,Tom grated the carrots,Sensible,edin_semantics,sem_emo_sem_emo,0.808488412993029,1,2,2,1,1311865.82277079,140,A
40,4,29/11/91,24,f,183,The puzzle solved Joe,Non-sensible,edin_semantics,sem_emo_sem_emo,0.584948594681919,2,2,2,1,1311867.15177353,34,A
40,4,29/11/91,24,f,184,The fruits mixed Jack,Non-sensible,edin_semantics,sem_emo_sem_emo,0.467812049435452,2,2,2,1,1311868.36318429,8,A
40,4,29/11/91,24,f,185,Lucy counted the shoes,Sensible,edin_semantics,sem_emo_sem_emo,0.584958216408268,2,1,1,1,1311869.69219472,123,A
40,4,29/11/91,24,f,186,Josh scrubbed the pot,Sensible,edin_semantics,sem_emo_sem_emo,0.855616542510688,1,1,1,1,1311871.2917291,131,A
40,4,29/11/91,24,f,187,The bucket lent Max,Non-sensible,edin_semantics,sem_emo_sem_emo,0.690903498558328,1,1,1,1,1311872.72657481,19,A
40,4,29/11/91,24,f,188,The shelf dusted Jake,Non-sensible,edin_semantics,sem_emo_sem_emo,0.738244908163324,1,1,1,1,1311874.20850438,47,A
40,4,29/11/91,24,f,189,The gun carried Ryan,Non-sensible,edin_semantics,sem_emo_sem_emo,0.45450883382,1,1,1,1,1311875.40812157,75,A
40,4,29/11/91,24,f,190,Alex wrote the report,Sensible,edin_semantics,sem_emo_sem_emo,0.561338987434283,2,1,1,1,1311876.71362791,149,A
40,4,29/11/91,24,f,191,The trolley pushed Matt,Non-sensible,edin_semantics,sem_emo_sem_emo,0.796562697272748,1,2,2,1,1311878.2543461,26,A
40,4,29/11/91,24,f,192,The folder carried Dan,Non-sensible,edin_semantics,sem_emo_sem_emo,0.538052667630836,1,2,2,1,1311879.53631532,30,A
40,4,29/11/91,24,f,193,The story wrote Ewan,Non-sensible,edin_semantics,sem_emo_sem_emo,0.655476900283247,2,2,2,1,1311880.93589575,74,A
40,4,29/11/91,24,f,194,The papers filed Lara,Non-sensible,edin_semantics,sem_emo_sem_emo,0.714358838973567,1,2,2,1,1311882.39426543,24,A
40,4,29/11/91,24,f,195,The thread measured Amy,Non-sensible,edin_semantics,sem_emo_sem_emo,0.632173261605203,1,1,1,1,1311883.77034113,51,A
40,4,29/11/91,24,f,196,The wine stored Leo,Non-sensible,edin_semantics,sem_emo_sem_emo,0.584683037130162,1,2,2,1,1311885.09938973,52,A
40,4,29/11/91,24,f,197,The bill paid Mike,Non-sensible,edin_semantics,sem_emo_sem_emo,0.62005286780186,1,1,2,0,1311886.46368051,59,A
40,4,29/11/91,24,f,198,The house built Kate,Non-sensible,edin_semantics,sem_emo_sem_emo,1.31376364338212,2,2,2,1,1311888.52189727,46,A
40,4,29/11/91,24,f,199,The shirt ironed Josh,Non-sensible,edin_semantics,sem_emo_sem_emo,0.996160961221904,2,1,1,1,1311890.2625492,55,A
40,4,29/11/91,24,f,200,The kettle got Lily,Non-sensible,edin_semantics,sem_emo_sem_emo,0.537926944671199,2,1,1,1,1311891.54445908,13,A
40,4,29/11/91,24,f,201,The dish served Kate,Non-sensible,edin_semantics,sem_emo_sem_emo,0.949736174196005,1,2,2,1,1311893.2380823,70,A
40,4,29/11/91,24,f,202,The milk sniffed Phil,Non-sensible,edin_semantics,sem_emo_sem_emo,0.632199881365523,1,2,2,1,1311894.61414421,18,A
40,4,29/11/91,24,f,203,Eve ironed the trousers,Sensible,edin_semantics,sem_emo_sem_emo,0.561709420988336,1,2,2,1,1311895.91981573,130,A
40,4,29/11/91,24,f,204,The book read Sean,Non-sensible,edin_semantics,sem_emo_sem_emo,0.99558334145695,2,2,2,1,1311897.66028131,4,A
40,4,29/11/91,24,f,205,Ben got the radio,Sensible,edin_semantics,sem_emo_sem_emo,0.678195221815258,1,2,2,1,1311899.0833793,88,A
40,4,29/11/91,24,f,206,Lucy cut the ribbon,Sensible,edin_semantics,sem_emo_sem_emo,0.678539035608992,2,1,1,1,1311900.50648724,95,A
40,4,29/11/91,24,f,207,Phil solved the problem,Sensible,edin_semantics,sem_emo_sem_emo,0.760710821952671,1,1,1,1,1311902.01190872,109,A
40,4,29/11/91,24,f,208,The box lifted Kate,Non-sensible,edin_semantics,sem_emo_sem_emo,0.54932122444734,1,1,1,1,1311903.30563046,69,A
40,4,29/11/91,24,f,209,Ian pushed the button,Sensible,edin_semantics,sem_emo_sem_emo,0.572994334856048,2,1,1,1,1311904.62292365,101,A
40,4,29/11/91,24,f,210,The pill swallowed Luke,Non-sensible,edin_semantics,sem_emo_sem_emo,0.643646439071745,2,2,2,1,1311906.01072397,22,A
40,4,29/11/91,24,f,211,Liam mixed the nuts,Sensible,edin_semantics,sem_emo_sem_emo,2.49057014053687,1,1,1,1,1311909.24504485,83,A
40,4,29/11/91,24,f,212,The lesson taught Eve,Non-sensible,edin_semantics,sem_emo_sem_emo,0.632248310372233,2,1,1,1,1311910.6210795,15,A
40,4,29/11/91,24,f,213,The ham ate Tim,Non-sensible,edin_semantics,sem_emo_sem_emo,0.643579408060759,1,1,1,1,1311912.00891286,67,A
40,4,29/11/91,24,f,214,The toffee chewed Ben,Non-sensible,edin_semantics,sem_emo_sem_emo,0.58522794325836,2,1,1,1,1311913.33794606,31,A
40,4,29/11/91,24,f,215,Erin described the church,Sensible,edin_semantics,sem_emo_sem_emo,0.808627285528928,1,1,1,1,1311914.89039881,117,A
40,4,29/11/91,24,f,216,The fur stroked Rob,Non-sensible,edin_semantics,sem_emo_sem_emo,0.59711581398733,2,1,1,1,1311916.23115824,41,A
40,4,29/11/91,24,f,217,Adam chewed the fat,Sensible,edin_semantics,sem_emo_sem_emo,0.66757837170735,1,2,2,1,1311917.64251557,106,A
40,4,29/11/91,24,f,218,The scarf knitted Tom,Non-sensible,edin_semantics,sem_emo_sem_emo,0.643678511260077,2,2,2,1,1311919.03034989,66,A
40,4,29/11/91,24,f,219,Tim took the ticket,Sensible,edin_semantics,sem_emo_sem_emo,0.750005452195182,2,2,2,1,1311920.52400474,128,A
40,4,29/11/91,24,f,220,The card posted Erin,Non-sensible,edin_semantics,sem_emo_sem_emo,0.737661515362561,1,2,2,1,1311922.0059202,36,A
40,4,29/11/91,24,f,221,Alex dusted the house,Sensible,edin_semantics,sem_emo_sem_emo,0.702965200413018,2,2,1,0,1311923.45284461,122,A
40,4,29/11/91,24,f,222,Eve typed the message,Sensible,edin_semantics,sem_emo_sem_emo,0.691102987388149,1,2,2,1,1311924.88740584,124,A
40,4,29/11/91,24,f,223,The herbs chopped Phil,Non-sensible,edin_semantics,sem_emo_sem_emo,1.6319044965785,2,1,1,1,1311927.26313099,27,A
40,4,29/11/91,24,f,224,The lorry dented Lily,Non-sensible,edin_semantics,sem_emo_sem_emo,0.51489559863694,2,1,1,1,1311928.5215958,71,A
40,4,29/11/91,24,f,225,Jay sold the bed,Sensible,edin_semantics,sem_emo_sem_emo,0.891119472682476,1,1,1,1,1311930.15639481,113,A
40,4,29/11/91,24,f,226,Fred served the dessert,Sensible,edin_semantics,sem_emo_sem_emo,0.549842397449538,1,1,1,1,1311931.45012457,145,A
40,4,29/11/91,24,f,227,Max kicked the door,Sensible,edin_semantics,sem_emo_sem_emo,0.644119503675029,1,2,2,1,1311932.83795664,114,A
40,4,29/11/91,24,f,228,Sara jumped the hedge,Sensible,edin_semantics,sem_emo_sem_emo,0.585133971879259,1,2,2,1,1311934.16695938,92,A
40,4,29/11/91,24,f,229,The jar labeled Liz,Non-sensible,edin_semantics,sem_emo_sem_emo,0.703038966283202,1,1,1,1,1311935.61360155,61,A
40,4,29/11/91,24,f,230,Hugh kissed the rose,Sensible,edin_semantics,sem_emo_sem_emo,0.726107836933807,2,2,2,1,1311937.08372183,98,A
40,4,29/11/91,24,f,231,Ryan stroked the blanket,Sensible,edin_semantics,sem_emo_sem_emo,1.02019071392715,1,2,2,1,1311938.84795226,116,A
40,4,29/11/91,24,f,232,The wall punched Jane,Non-sensible,edin_semantics,sem_emo_sem_emo,0.620266147656366,1,2,2,1,1311940.2122982,50,A
40,4,29/11/91,24,f,233,Tim sniffed the perfume,Sensible,edin_semantics,sem_emo_sem_emo,0.938188589643687,2,1,1,1,1311941.89405568,93,A
40,4,29/11/91,24,f,234,The spoon licked Will,Non-sensible,edin_semantics,sem_emo_sem_emo,0.749771645991132,1,1,1,1,1311943.38773361,21,A
40,4,29/11/91,24,f,235,The ball squeezed Josh,Non-sensible,edin_semantics,sem_emo_sem_emo,0.51458385726437,1,1,1,1,1311944.64615609,1,A
40,4,29/11/91,24,f,236,The movie watched Ella,Non-sensible,edin_semantics,sem_emo_sem_emo,0.455698070116341,1,1,1,1,1311945.84583806,33,A
40,4,29/11/91,24,f,237,The juice drank Matt,Non-sensible,edin_semantics,sem_emo_sem_emo,0.902883544797078,2,2,2,1,1311947.49242263,60,A
40,4,29/11/91,24,f,238,Ben climbed the stairs,Sensible,edin_semantics,sem_emo_sem_emo,2.30142419668846,2,1,1,1,1311950.5385129,143,A
40,4,29/11/91,24,f,239,Andy pulled the rope,Sensible,edin_semantics,sem_emo_sem_emo,0.642563041066751,2,2,2,1,1311951.92633985,148,A
40,4,29/11/91,24,f,240,The sofa sold Carl,Non-sensible,edin_semantics,sem_emo_sem_emo,0.573072590865195,2,2,2,1,1311953.24357691,38,A
40,4,29/11/91,24,f,241,Zoe paid the debt,Sensible,edin_semantics,sem_emo_sem_emo,0.49086616653949,2,2,2,1,1311954.47849914,134,A
40,4,29/11/91,24,f,242,Sam sucked the candy,Sensible,edin_semantics,sem_emo_sem_emo,0.855766961118206,1,1,1,1,1311956.07803865,87,A
40,4,29/11/91,24,f,243,Kate wore the dress,Sensible,edin_semantics,sem_emo_sem_emo,0.690881048329175,2,2,2,1,1311957.51288852,100,A
40,4,29/11/91,24,f,244,Lucy wiped the desk,Sensible,edin_semantics,sem_emo_sem_emo,0.573385935975239,2,1,1,1,1311958.83013456,115,A
40,4,29/11/91,24,f,245,The paper cut Jon,Non-sensible,edin_semantics,sem_emo_sem_emo,0.808503807522357,2,2,2,1,1311960.38260944,20,A
40,4,29/11/91,24,f,246,Rose built the shed,Sensible,edin_semantics,sem_emo_sem_emo,0.902637551305816,1,1,1,1,1311962.02921582,121,A
40,4,29/11/91,24,f,247,Joe entered the office,Sensible,edin_semantics,sem_emo_sem_emo,0.549683319404721,2,1,1,1,1311963.32290806,133,A
40,4,29/11/91,24,f,248,The letter typed Phil,Non-sensible,edin_semantics,sem_emo_sem_emo,0.444023479474708,2,1,1,1,1311964.51079806,49,A
40,4,29/11/91,24,f,249,The eggs whisked Dan,Non-sensible,edin_semantics,sem_emo_sem_emo,0.632419255096465,2,2,2,1,1311965.88684008,62,A
40,4,29/11/91,24,f,250,Josh taught the rules,Sensible,edin_semantics,sem_emo_sem_emo,0.866958865663037,1,2,2,1,1311967.49812474,90,A
40,4,29/11/91,24,f,251,The pen described John,Non-sensible,edin_semantics,sem_emo_sem_emo,0.515011379029602,1,2,2,1,1311968.75661905,42,A
40,4,29/11/91,24,f,252,Jane licked the plate,Sensible,edin_semantics,sem_emo_sem_emo,0.491045450093225,1,2,2,1,1311969.99151178,96,A
40,4,29/11/91,24,f,253,The laptop fixed Jen,Non-sensible,edin_semantics,sem_emo_sem_emo,0.620546137681231,2,1,1,1,1311971.3557862,37,A
40,4,29/11/91,24,f,254,Adam watched the opera,Sensible,edin_semantics,sem_emo_sem_emo,0.832110528368503,1,2,2,1,1311972.93182194,108,A
40,4,29/11/91,24,f,255,The room tidied Sam,Non-sensible,edin_semantics,sem_emo_sem_emo,0.538209821097553,1,2,2,1,1311974.21379309,2,A
40,4,29/11/91,24,f,256,Rob measured the curtains,Sensible,edin_semantics,sem_emo_sem_emo,0.632208220195025,2,2,1,0,1311975.58983607,126,A
40,4,29/11/91,24,f,257,The hill climbed Luke,Non-sensible,edin_semantics,sem_emo_sem_emo,1.42029424291104,2,2,2,1,1311977.75391345,68,A
40,4,29/11/91,24,f,258,Luke watered the plants,Sensible,edin_semantics,sem_emo_sem_emo,0.936868819640949,2,1,1,1,1311979.43573699,129,A
40,4,29/11/91,24,f,259,Kate hugged the pillow,Sensible,edin_semantics,sem_emo_sem_emo,0.808547746622935,2,2,2,1,1311980.98827858,86,A
40,4,29/11/91,24,f,260,The sheets counted Bill,Non-sensible,edin_semantics,sem_emo_sem_emo,0.6315603624098,2,2,2,1,1311982.36426929,48,A
40,4,29/11/91,24,f,261,Ian filed the report,Sensible,edin_semantics,sem_emo_sem_emo,0.714910480193794,1,1,1,1,1311983.8226425,99,A
40,4,29/11/91,24,f,262,Amy lifted the crate,Sensible,edin_semantics,sem_emo_sem_emo,1.12577390135266,2,2,2,1,1311985.69264373,144,A
40,4,29/11/91,24,f,263,Liz weighed the sugar,Sensible,edin_semantics,sem_emo_sem_emo,0.690986565779895,2,1,1,1,1311987.12752697,139,A
40,4,29/11/91,24,f,264,Ian mailed the invite,Sensible,edin_semantics,sem_emo_sem_emo,0.667515509994701,2,1,1,1,1311988.53886698,89,A
40,4,29/11/91,24,f,265,The tree hugged Amy,Non-sensible,edin_semantics,sem_emo_sem_emo,0.502666159532964,2,1,1,1,1311989.7855613,11,A
40,4,29/11/91,24,f,266,The flour weighed Jen,Non-sensible,edin_semantics,sem_emo_sem_emo,0.843453492969275,1,2,2,1,1311991.373347,64,A
40,4,29/11/91,24,f,267,The potatoes mashed Will,Non-sensible,edin_semantics,sem_emo_sem_emo,1.05548036424443,2,2,2,1,1311993.17278529,28,A
40,4,29/11/91,24,f,268,The jumper wore Joe,Non-sensible,edin_semantics,sem_emo_sem_emo,0.749918857356533,1,1,1,1,1311994.66643885,25,A
40,4,29/11/91,24,f,269,Dan brushed the hair,Sensible,edin_semantics,sem_emo_sem_emo,0.632161074085161,2,1,1,1,1311996.04250364,147,A
40,4,29/11/91,24,f,270,Jay squeezed the lemon,Sensible,edin_semantics,sem_emo_sem_emo,0.631677425699309,1,2,2,1,1311997.41855529,76,A
40,4,29/11/91,24,f,271,The cheese grated Andy,Non-sensible,edin_semantics,sem_emo_sem_emo,0.691010299138725,1,1,1,1,1311998.85343916,65,A
40,4,29/11/91,24,f,272,Fred chopped the carrots,Sensible,edin_semantics,sem_emo_sem_emo,0.608714393572882,2,2,2,1,1312000.20596363,102,A
40,4,29/11/91,24,f,273,Jack posted the gift,Sensible,edin_semantics,sem_emo_sem_emo,0.573413197183982,2,1,1,1,1312001.52324463,111,A
40,4,29/11/91,24,f,274,The mirror kissed Max,Non-sensible,edin_semantics,sem_emo_sem_emo,0.738084868062288,1,1,1,1,1312003.00511936,23,A
40,4,29/11/91,24,f,275,Erin tidied the garage,Sensible,edin_semantics,sem_emo_sem_emo,0.514543446246535,2,1,1,1,1312004.26358192,77,A
40,4,29/11/91,24,f,276,Anna polished the trophy,Sensible,edin_semantics,sem_emo_sem_emo,0.702803556574509,2,2,2,1,1312005.71019042,104,A
40,4,29/11/91,24,f,277,Max searched the internet,Sensible,edin_semantics,sem_emo_sem_emo,0.773159955628216,1,1,1,1,1312007.22738014,85,A
40,4,29/11/91,24,f,278,The museum visited Mary,Non-sensible,edin_semantics,sem_emo_sem_emo,0.678936409996822,2,2,2,1,1312008.65048551,16,A
40,4,29/11/91,24,f,279,The bowl scrubbed Liz,Non-sensible,edin_semantics,sem_emo_sem_emo,0.761748677352443,1,2,2,1,1312010.15597113,56,A
40,4,29/11/91,24,f,280,Jack cleaned the bath,Sensible,edin_semantics,sem_emo_sem_emo,0.642756436252967,1,2,2,1,1312011.54372303,80,A
40,4,29/11/91,24,f,281,The table wiped Beth,Non-sensible,edin_semantics,sem_emo_sem_emo,0.666953605599701,2,2,2,1,1312012.95508677,40,A
40,4,29/11/91,24,f,282,Leo carried the wallet,Sensible,edin_semantics,sem_emo_sem_emo,0.514189048903063,2,2,2,1,1312014.21351919,150,A
40,4,29/11/91,24,f,283,The coins polished Jon,Non-sensible,edin_semantics,sem_emo_sem_emo,0.537921813316643,2,1,1,1,1312015.49548488,29,A
40,4,29/11/91,24,f,284,The money offered Matt,Non-sensible,edin_semantics,sem_emo_sem_emo,0.420501429121941,2,1,1,1,1312016.65984673,9,A
40,4,29/11/91,24,f,285,The parcel mailed Rob,Non-sensible,edin_semantics,sem_emo_sem_emo,0.444230024237186,2,2,2,1,1312017.84771781,14,A
40,4,29/11/91,24,f,286,Ian dented the bowl,Sensible,edin_semantics,sem_emo_sem_emo,0.761629368877038,1,2,2,1,1312019.35314442,146,A
40,4,29/11/91,24,f,287,Emma pulled the rope,Sensible,edin_semantics,sem_emo_sem_emo,0.491257767891511,1,2,2,1,1312020.58808397,120,A
40,4,29/11/91,24,f,288,Ella mashed the turnip,Sensible,edin_semantics,sem_emo_sem_emo,0.502665518084541,1,1,2,0,1312021.83474494,103,A
40,4,29/11/91,24,f,289,Hugh dialed the hotline,Sensible,edin_semantics,sem_emo_sem_emo,1.74936497095041,2,2,1,0,1312024.32812877,138,A
40,4,29/11/91,24,f,290,The picture painted Ryan,Non-sensible,edin_semantics,sem_emo_sem_emo,0.796876363223419,2,1,1,1,1312025.8688662,35,A
40,4,29/11/91,24,f,291,Leo passed the salt,Sensible,edin_semantics,sem_emo_sem_emo,0.784757893765345,1,2,2,1,1312027.39778792,118,A
40,4,29/11/91,24,f,292,The fence jumped Jon,Non-sensible,edin_semantics,sem_emo_sem_emo,0.50277969497256,1,1,1,1,1312028.64448384,17,A
40,4,29/11/91,24,f,293,The tomato sliced Liz,Non-sensible,edin_semantics,sem_emo_sem_emo,1.37283063842915,2,1,1,1,1312030.76150461,3,A
40,4,29/11/91,24,f,294,The lever pulled Hugh,Non-sensible,edin_semantics,sem_emo_sem_emo,0.514707335038111,2,1,1,1,1312032.01992804,45,A
40,4,29/11/91,24,f,295,The lolly sucked Leah,Non-sensible,edin_semantics,sem_emo_sem_emo,0.585106389829889,2,2,2,1,1312033.34894521,12,A
40,4,29/11/91,24,f,296,Liam sliced the onion,Sensible,edin_semantics,sem_emo_sem_emo,2.45505309873261,1,2,2,1,1312036.54802262,78,A
40,4,29/11/91,24,f,297,The garlic crushed Erin,Non-sensible,edin_semantics,sem_emo_sem_emo,0.667607236653566,2,2,2,1,1312037.95934981,6,A
40,4,29/11/91,24,f,298,The garden watered Jeff,Non-sensible,edin_semantics,sem_emo_sem_emo,0.761439180932939,1,2,2,1,1312039.46476134,54,A
40,4,29/11/91,24,f,299,Beth washed the pan,Sensible,edin_semantics,sem_emo_sem_emo,0.726258255308494,2,2,2,1,1312040.93489734,132,A
40,4,29/11/91,24,f,300,The number dialed Tom,Non-sensible,edin_semantics,sem_emo_sem_emo,0.773145843762904,1,1,1,1,1312042.45210182,63,A
