subject_column,AssignedList_column,subject_dob_column,subject_age_column,subject_gender_column,trialnum_column,Stim_column,Type_column,Experiment_column,OrderGroup_column,ReactionTime_column,StimSide_column,StimPosition_column,Response_column,Valid_column,TrialEndSecs_column,PairID_column,List_column
41,1,25/2/95,21,f,1,The bowl scrubbed Liz,Non-sensible,edin_semantics,emo_sem_emo_sem,14.2324164328165,1,2,2,1,1320523.74440758,56,A
41,1,25/2/95,21,f,2,Ian dented the bowl,Sensible,edin_semantics,emo_sem_emo_sem,5.86204829555936,1,2,2,1,1320530.35416464,146,A
41,1,25/2/95,21,f,3,The parcel mailed Rob,Non-sensible,edin_semantics,emo_sem_emo_sem,3.86311822314747,1,2,2,1,1320534.96456987,14,A
41,1,25/2/95,21,f,4,Josh crushed the ice,Sensible,edin_semantics,emo_sem_emo_sem,14.5189892905764,1,1,1,1,1320550.23056908,81,A
41,1,25/2/95,21,f,5,Fred chopped the carrots,Sensible,edin_semantics,emo_sem_emo_sem,1.66651998995803,2,2,2,1,1320552.64161435,102,A
41,1,25/2/95,21,f,6,Eve typed the message,Sensible,edin_semantics,emo_sem_emo_sem,1.52531167725101,2,2,2,1,1320554.91153662,124,A
41,1,25/2/95,21,f,7,Leo passed the salt,Sensible,edin_semantics,emo_sem_emo_sem,17.2733578407206,2,2,2,1,1320572.92971961,118,A
41,1,25/2/95,21,f,8,The thread measured Amy,Non-sensible,edin_semantics,emo_sem_emo_sem,5.7472674511373,1,1,1,1,1320579.42185231,51,A
41,1,25/2/95,21,f,9,The lorry dented Lily,Non-sensible,edin_semantics,emo_sem_emo_sem,1.24250890314579,1,1,1,1,1320581.40948528,71,A
41,1,25/2/95,21,f,10,Ian mailed the invite,Sensible,edin_semantics,emo_sem_emo_sem,1.30217211996205,2,1,1,1,1320583.45593733,89,A
41,1,25/2/95,21,f,11,The shirt ironed Josh,Non-sensible,edin_semantics,emo_sem_emo_sem,1.43191110366024,1,1,1,1,1320585.63174863,55,A
41,1,25/2/95,21,f,12,Lucy cut the ribbon,Sensible,edin_semantics,emo_sem_emo_sem,8.10068672941998,2,1,1,1,1320594.47617391,95,A
41,1,25/2/95,21,f,13,The lever pulled Hugh,Non-sensible,edin_semantics,emo_sem_emo_sem,5.66518161818385,1,1,1,1,1320600.88602256,45,A
41,1,25/2/95,21,f,14,The card posted Erin,Non-sensible,edin_semantics,emo_sem_emo_sem,20.0016921276692,2,2,0,-1,1320621.63275409,36,A
41,1,25/2/95,21,f,15,The toffee chewed Ben,Non-sensible,edin_semantics,emo_sem_emo_sem,3.51282405736856,2,1,1,1,1320625.89031286,31,A
41,1,25/2/95,21,f,16,The dishes washed Mark,Non-sensible,edin_semantics,emo_sem_emo_sem,5.03052597073838,1,1,1,1,1320631.66530638,57,A
41,1,25/2/95,21,f,17,Eve ironed the trousers,Sensible,edin_semantics,emo_sem_emo_sem,2.04174257093109,1,2,2,1,1320634.45248123,130,A
41,1,25/2/95,21,f,18,The hill climbed Luke,Non-sensible,edin_semantics,emo_sem_emo_sem,1.70335712237284,1,2,2,1,1320636.8987751,68,A
41,1,25/2/95,21,f,19,The jumper wore Joe,Non-sensible,edin_semantics,emo_sem_emo_sem,2.32639430556446,1,1,1,1,1320639.96843104,25,A
41,1,25/2/95,21,f,20,Liz weighed the sugar,Sensible,edin_semantics,emo_sem_emo_sem,2.39664614922367,1,1,1,1,1320643.10868617,139,A
41,1,25/2/95,21,f,21,The laptop fixed Jen,Non-sensible,edin_semantics,emo_sem_emo_sem,1.37317445222288,1,1,1,1,1320645.22576691,37,A
41,1,25/2/95,21,f,22,Erin described the church,Sensible,edin_semantics,emo_sem_emo_sem,7.99374560615979,2,1,1,1,1320653.9642607,117,A
41,1,25/2/95,21,f,23,The ball squeezed Josh,Non-sensible,edin_semantics,emo_sem_emo_sem,2.52476965775713,1,1,1,1,1320657.23387508,1,A
41,1,25/2/95,21,f,24,Phil cancelled the party,Sensible,edin_semantics,emo_sem_emo_sem,5.81848659110256,2,2,2,1,1320663.79661946,82,A
41,1,25/2/95,21,f,25,The wine stored Leo,Non-sensible,edin_semantics,emo_sem_emo_sem,2.06626078253612,2,2,2,1,1320666.60753542,52,A
41,1,25/2/95,21,f,26,Bill trimmed the hair,Sensible,edin_semantics,emo_sem_emo_sem,1.43144509498961,1,1,1,1,1320668.78333934,107,A
41,1,25/2/95,21,f,27,The cake iced Mary,Non-sensible,edin_semantics,emo_sem_emo_sem,6.34767643548548,2,2,2,1,1320675.875373,44,A
41,1,25/2/95,21,f,28,Josh scrubbed the pot,Sensible,edin_semantics,emo_sem_emo_sem,1.72546254494227,2,1,1,1,1320678.34522259,131,A
41,1,25/2/95,21,f,29,The house built Kate,Non-sensible,edin_semantics,emo_sem_emo_sem,1.96059324545786,2,2,2,1,1320681.05027665,46,A
41,1,25/2/95,21,f,30,Fred stored the rice,Sensible,edin_semantics,emo_sem_emo_sem,10.5578700616024,1,1,1,1,1320692.35277944,127,A
41,1,25/2/95,21,f,31,The table wiped Beth,Non-sensible,edin_semantics,emo_sem_emo_sem,3.91239358438179,2,2,2,1,1320697.01020761,40,A
41,1,25/2/95,21,f,32,The picture painted Ryan,Non-sensible,edin_semantics,emo_sem_emo_sem,6.53515141922981,2,1,1,1,1320704.29038303,35,A
41,1,25/2/95,21,f,33,Luke watered the plants,Sensible,edin_semantics,emo_sem_emo_sem,1.44342629564926,2,1,1,1,1320706.47796193,129,A
41,1,25/2/95,21,f,34,Lucy wiped the desk,Sensible,edin_semantics,emo_sem_emo_sem,4.18318084091879,1,1,1,1,1320711.40594387,115,A
41,1,25/2/95,21,f,35,The juice drank Matt,Non-sensible,edin_semantics,emo_sem_emo_sem,5.95957110542804,2,2,2,1,1320718.10976796,60,A
41,1,25/2/95,21,f,36,Mike ate the steak,Sensible,edin_semantics,emo_sem_emo_sem,1.30803042231128,1,2,2,1,1320720.15621681,142,A
41,1,25/2/95,21,f,37,Erin tidied the garage,Sensible,edin_semantics,emo_sem_emo_sem,3.30122983944602,2,1,1,1,1320724.20206718,77,A
41,1,25/2/95,21,f,38,The sofa sold Carl,Non-sensible,edin_semantics,emo_sem_emo_sem,20.0025638493244,2,2,0,-1,1320744.94881218,38,A
41,1,25/2/95,21,f,39,The bucket lent Max,Non-sensible,edin_semantics,emo_sem_emo_sem,2.73685233457945,2,1,1,1,1320748.43012821,19,A
41,1,25/2/95,21,f,40,The trolley pushed Matt,Non-sensible,edin_semantics,emo_sem_emo_sem,3.52511315047741,2,2,2,1,1320752.69941545,26,A
41,1,25/2/95,21,f,41,The letter typed Phil,Non-sensible,edin_semantics,emo_sem_emo_sem,3.52519429312088,2,1,1,1,1320756.96870654,49,A
41,1,25/2/95,21,f,42,The story wrote Ewan,Non-sensible,edin_semantics,emo_sem_emo_sem,2.72156577603891,2,2,2,1,1320760.42652907,74,A
41,1,25/2/95,21,f,43,The coins polished Jon,Non-sensible,edin_semantics,emo_sem_emo_sem,3.20749892247841,2,1,1,1,1320764.37827457,29,A
41,1,25/2/95,21,f,44,The fruits mixed Jack,Non-sensible,edin_semantics,emo_sem_emo_sem,1.81936857593246,1,2,2,1,1320766.94223,8,A
41,1,25/2/95,21,f,45,Alex dusted the house,Sensible,edin_semantics,emo_sem_emo_sem,4.73652583989315,2,2,2,1,1320772.42301076,122,A
41,1,25/2/95,21,f,46,The movie watched Ella,Non-sensible,edin_semantics,emo_sem_emo_sem,3.45433339918964,2,1,1,1,1320776.62166674,33,A
41,1,25/2/95,21,f,47,The room searched Jen,Non-sensible,edin_semantics,emo_sem_emo_sem,5.11291841347702,1,2,2,1,1320782.47874609,10,A
41,1,25/2/95,21,f,48,The spoon licked Will,Non-sensible,edin_semantics,emo_sem_emo_sem,5.44164693146013,1,1,1,1,1320788.66514217,21,A
41,1,25/2/95,21,f,49,Hugh kissed the rose,Sensible,edin_semantics,emo_sem_emo_sem,12.9103586054407,1,2,2,1,1320802.31987981,98,A
41,1,25/2/95,21,f,50,The bill paid Mike,Non-sensible,edin_semantics,emo_sem_emo_sem,3.85432692058384,1,1,1,1,1320806.91851873,59,A
41,1,25/2/95,21,f,51,Tom grated the carrots,Sensible,edin_semantics,emo_sem_emo_sem,4.78286755993031,2,2,2,1,1320812.4462804,140,A
41,1,25/2/95,21,f,52,The bike kicked Matt,Non-sensible,edin_semantics,emo_sem_emo_sem,3.60722592403181,2,1,1,1,1320816.79791711,39,A
41,1,25/2/95,21,f,53,The room entered Ryan,Non-sensible,edin_semantics,emo_sem_emo_sem,1.34832397243008,1,2,2,1,1320818.89140331,58,A
41,1,25/2/95,21,f,54,Erin punched the monitor,Sensible,edin_semantics,emo_sem_emo_sem,1.28950072615407,1,1,1,1,1320820.92606306,125,A
41,1,25/2/95,21,f,55,Kate wore the dress,Sensible,edin_semantics,emo_sem_emo_sem,8.90047716978006,2,2,2,1,1320830.57024735,100,A
41,1,25/2/95,21,f,56,Max kicked the door,Sensible,edin_semantics,emo_sem_emo_sem,2.3252724208869,1,2,2,1,1320833.6399219,114,A
41,1,25/2/95,21,f,57,Fred served the dessert,Sensible,edin_semantics,emo_sem_emo_sem,3.28974479530007,2,1,1,1,1320837.67399569,145,A
41,1,25/2/95,21,f,58,The fur stroked Rob,Non-sensible,edin_semantics,emo_sem_emo_sem,1.04329678835347,2,1,1,1,1320839.46174977,41,A
41,1,25/2/95,21,f,59,Tom visited the hospital,Sensible,edin_semantics,emo_sem_emo_sem,2.13689364353195,1,1,1,1,1320842.34322257,91,A
41,1,25/2/95,21,f,60,The wall punched Jane,Non-sensible,edin_semantics,emo_sem_emo_sem,4.44271525554359,1,2,2,1,1320847.52986528,50,A
41,1,25/2/95,21,f,61,Jay sold the bed,Sensible,edin_semantics,emo_sem_emo_sem,1.20773369073868,1,1,1,1,1320849.48221662,113,A
41,1,25/2/95,21,f,62,The tomato sliced Liz,Non-sensible,edin_semantics,emo_sem_emo_sem,1.25528613501228,1,1,1,1,1320851.48162329,3,A
41,1,25/2/95,21,f,63,Ian filed the report,Sensible,edin_semantics,emo_sem_emo_sem,0.807724774582312,2,1,1,1,1320853.03409689,99,A
41,1,25/2/95,21,f,64,Ian pushed the button,Sensible,edin_semantics,emo_sem_emo_sem,1.25511422823183,2,1,1,1,1320855.03355487,101,A
41,1,25/2/95,21,f,65,The photo took Beth,Non-sensible,edin_semantics,emo_sem_emo_sem,1.33802271215245,1,1,1,1,1320857.11524782,53,A
41,1,25/2/95,21,f,66,The scarf knitted Tom,Non-sensible,edin_semantics,emo_sem_emo_sem,3.81911841314286,1,2,2,1,1320861.67858586,66,A
41,1,25/2/95,21,f,67,The mirror kissed Max,Non-sensible,edin_semantics,emo_sem_emo_sem,1.16124091064557,2,1,1,1,1320863.5839194,23,A
41,1,25/2/95,21,f,68,The room tidied Sam,Non-sensible,edin_semantics,emo_sem_emo_sem,0.879215245367959,2,2,2,1,1320865.20693253,2,A
41,1,25/2/95,21,f,69,The paper cut Jon,Non-sensible,edin_semantics,emo_sem_emo_sem,1.99663851596415,1,2,2,1,1320867.94731793,20,A
41,1,25/2/95,21,f,70,Emma pulled the rope,Sensible,edin_semantics,emo_sem_emo_sem,0.843818794935942,2,2,2,1,1320869.53504141,120,A
41,1,25/2/95,21,f,71,Amy lifted the crate,Sensible,edin_semantics,emo_sem_emo_sem,1.14980974793434,2,2,2,1,1320871.42862852,144,A
41,1,25/2/95,21,f,72,Ella mashed the turnip,Sensible,edin_semantics,emo_sem_emo_sem,1.16086759069003,2,1,1,1,1320873.33392485,103,A
41,1,25/2/95,21,f,73,The lesson taught Eve,Non-sensible,edin_semantics,emo_sem_emo_sem,1.85526823881082,2,1,1,1,1320875.93318629,15,A
41,1,25/2/95,21,f,74,Tom offered the sweets,Sensible,edin_semantics,emo_sem_emo_sem,5.6421390469186,2,2,2,1,1320882.31948339,84,A
41,1,25/2/95,21,f,75,Jack drank the beer,Sensible,edin_semantics,emo_sem_emo_sem,0.773265472846106,2,1,1,1,1320883.83667921,135,A
41,1,25/2/95,21,f,76,The money offered Matt,Non-sensible,edin_semantics,emo_sem_emo_sem,6.18332933494821,1,1,1,1,1320890.76401137,9,A
41,1,25/2/95,21,f,77,Liam sliced the onion,Sensible,edin_semantics,emo_sem_emo_sem,5.93599549448118,1,2,2,1,1320897.44436473,78,A
41,1,25/2/95,21,f,78,Zoe paid the debt,Sensible,edin_semantics,emo_sem_emo_sem,1.38450073893182,1,2,2,1,1320899.57317458,134,A
41,1,25/2/95,21,f,79,Jay squeezed the lemon,Sensible,edin_semantics,emo_sem_emo_sem,9.56556513719261,1,2,2,1,1320909.87594292,76,A
41,1,25/2/95,21,f,80,Ben got the radio,Sensible,edin_semantics,emo_sem_emo_sem,4.08916095364839,1,2,2,1,1320914.70976675,88,A
41,1,25/2/95,21,f,81,Joe iced the donut,Sensible,edin_semantics,emo_sem_emo_sem,2.32577146403492,2,1,1,1,1320917.77951538,119,A
41,1,25/2/95,21,f,82,Lucy counted the shoes,Sensible,edin_semantics,emo_sem_emo_sem,1.24307144922204,2,1,1,1,1320919.76708837,123,A
41,1,25/2/95,21,f,83,The gun carried Ryan,Non-sensible,edin_semantics,emo_sem_emo_sem,1.01990879955702,1,1,1,1,1320921.53127421,75,A
41,1,25/2/95,21,f,84,Beth washed the pan,Sensible,edin_semantics,emo_sem_emo_sem,2.96057271934114,2,2,2,1,1320925.23603514,132,A
41,1,25/2/95,21,f,85,Josh taught the rules,Sensible,edin_semantics,emo_sem_emo_sem,1.58446687064134,2,2,2,1,1320927.56480118,90,A
41,1,25/2/95,21,f,86,The number dialed Tom,Non-sensible,edin_semantics,emo_sem_emo_sem,2.47853858652525,1,1,1,1,1320930.7873737,63,A
41,1,25/2/95,21,f,87,Ryan knitted the socks,Sensible,edin_semantics,emo_sem_emo_sem,8.60565310507081,1,1,1,1,1320940.13747607,141,A
41,1,25/2/95,21,f,88,The cheese grated Andy,Non-sensible,edin_semantics,emo_sem_emo_sem,11.8165337168612,1,1,1,1,1320952.69842506,65,A
41,1,25/2/95,21,f,89,The garlic crushed Erin,Non-sensible,edin_semantics,emo_sem_emo_sem,5.06664564879611,1,2,2,1,1320958.50846032,6,A
41,1,25/2/95,21,f,90,The dish served Kate,Non-sensible,edin_semantics,emo_sem_emo_sem,5.85382018028758,1,2,2,1,1320965.10649147,70,A
41,1,25/2/95,21,f,91,Andy pulled the rope,Sensible,edin_semantics,emo_sem_emo_sem,2.16055296268314,2,2,2,1,1320968.01150429,148,A
41,1,25/2/95,21,f,92,Leo carried the wallet,Sensible,edin_semantics,emo_sem_emo_sem,1.7138293273747,2,2,2,1,1320970.46956447,150,A
41,1,25/2/95,21,f,93,Sam sucked the candy,Sensible,edin_semantics,emo_sem_emo_sem,1.51404344127513,1,1,1,1,1320972.72770663,87,A
41,1,25/2/95,21,f,94,The box lifted Kate,Non-sensible,edin_semantics,emo_sem_emo_sem,2.53708184300922,2,1,1,1,1320976.00907322,69,A
41,1,25/2/95,21,f,95,The pen described John,Non-sensible,edin_semantics,emo_sem_emo_sem,2.19576371531002,2,2,2,1,1320978.94942026,42,A
41,1,25/2/95,21,f,96,The towels passed Phil,Non-sensible,edin_semantics,emo_sem_emo_sem,1.37232325668447,2,1,1,1,1320981.06640864,43,A
41,1,25/2/95,21,f,97,The folder carried Dan,Non-sensible,edin_semantics,emo_sem_emo_sem,3.865767063573,1,2,2,1,1320985.6767709,30,A
41,1,25/2/95,21,f,98,The museum visited Mary,Non-sensible,edin_semantics,emo_sem_emo_sem,2.58430458558723,2,2,2,1,1320989.00521044,16,A
41,1,25/2/95,21,f,99,The sheets counted Bill,Non-sensible,edin_semantics,emo_sem_emo_sem,5.71236491203308,1,2,2,1,1320995.46208749,48,A
41,1,25/2/95,21,f,100,Fred lent the car,Sensible,edin_semantics,emo_sem_emo_sem,3.43103906139731,2,2,2,1,1320999.63732213,94,A
41,1,25/2/95,21,f,101,Adam watched the opera,Sensible,edin_semantics,emo_sem_emo_sem,3.27814942295663,1,2,2,1,1321003.65964243,108,A
41,1,25/2/95,21,f,102,The pill swallowed Luke,Non-sensible,edin_semantics,emo_sem_emo_sem,1.49012080952525,2,2,2,1,1321005.89427281,22,A
41,1,25/2/95,21,f,103,The milk sniffed Phil,Non-sensible,edin_semantics,emo_sem_emo_sem,0.996333509450778,2,2,2,1,1321007.63492377,18,A
41,1,25/2/95,21,f,104,The jar labeled Liz,Non-sensible,edin_semantics,emo_sem_emo_sem,2.27863531629555,2,1,1,1,1321010.65755165,61,A
41,1,25/2/95,21,f,105,Dan brushed the hair,Sensible,edin_semantics,emo_sem_emo_sem,1.96051755500957,2,1,1,1,1321013.36258486,147,A
41,1,25/2/95,21,f,106,Ben climbed the stairs,Sensible,edin_semantics,emo_sem_emo_sem,3.00768481264822,2,1,1,1,1321017.11445948,143,A
41,1,25/2/95,21,f,107,Ryan stroked the blanket,Sensible,edin_semantics,emo_sem_emo_sem,13.5099475043826,1,2,2,1,1321031.36900924,116,A
41,1,25/2/95,21,f,108,Jack posted the gift,Sensible,edin_semantics,emo_sem_emo_sem,1.2198021276854,2,1,1,1,1321033.3331487,111,A
41,1,25/2/95,21,f,109,Max searched the internet,Sensible,edin_semantics,emo_sem_emo_sem,1.46637874422595,1,1,1,1,1321035.54422816,85,A
41,1,25/2/95,21,f,110,The plans cancelled Ian,Non-sensible,edin_semantics,emo_sem_emo_sem,2.24244091007859,2,1,1,1,1321038.53155485,7,A
41,1,25/2/95,21,f,111,Phil solved the problem,Sensible,edin_semantics,emo_sem_emo_sem,3.65352627099492,2,1,1,1,1321042.93024271,109,A
41,1,25/2/95,21,f,112,The kettle got Lily,Non-sensible,edin_semantics,emo_sem_emo_sem,4.39476030529477,1,1,1,1,1321048.06986826,13,A
41,1,25/2/95,21,f,113,Rob measured the curtains,Sensible,edin_semantics,emo_sem_emo_sem,0.972229349426925,2,2,2,1,1321049.78700936,126,A
41,1,25/2/95,21,f,114,The teeth brushed Carl,Non-sensible,edin_semantics,emo_sem_emo_sem,3.32479294203222,1,2,2,1,1321053.85648089,72,A
41,1,25/2/95,21,f,115,The shelf dusted Jake,Non-sensible,edin_semantics,emo_sem_emo_sem,1.14904161938466,2,1,1,1,1321055.74995414,47,A
41,1,25/2/95,21,f,116,The potatoes mashed Will,Non-sensible,edin_semantics,emo_sem_emo_sem,3.34837400494143,1,2,2,1,1321059.8428066,28,A
41,1,25/2/95,21,f,117,The bushes trimmed Jon,Non-sensible,edin_semantics,emo_sem_emo_sem,8.98211142630316,2,2,2,1,1321069.56932624,32,A
41,1,25/2/95,21,f,118,Luke read the poster,Sensible,edin_semantics,emo_sem_emo_sem,1.58432286675088,2,1,1,1,1321071.89803199,79,A
41,1,25/2/95,21,f,119,The puzzle solved Joe,Non-sensible,edin_semantics,emo_sem_emo_sem,5.79427659302019,2,2,2,1,1321078.43726972,34,A
41,1,25/2/95,21,f,120,Sara jumped the hedge,Sensible,edin_semantics,emo_sem_emo_sem,1.19592535914853,1,2,2,1,1321080.37786437,92,A
41,1,25/2/95,21,f,121,The herbs chopped Phil,Non-sensible,edin_semantics,emo_sem_emo_sem,5.04219318483956,2,1,1,1,1321086.16436827,27,A
41,1,25/2/95,21,f,122,The fence jumped Jon,Non-sensible,edin_semantics,emo_sem_emo_sem,11.158041391056,2,1,1,1,1321098.06671428,17,A
41,1,25/2/95,21,f,123,Jack cleaned the bath,Sensible,edin_semantics,emo_sem_emo_sem,9.33393928362057,2,2,2,1,1321108.1460448,80,A
41,1,25/2/95,21,f,124,The ham ate Tim,Non-sensible,edin_semantics,emo_sem_emo_sem,2.59148233709857,2,1,1,1,1321111.47442341,67,A
41,1,25/2/95,21,f,125,Luke fixed the radio,Sensible,edin_semantics,emo_sem_emo_sem,2.27793069067411,1,2,2,1,1321114.49708464,112,A
41,1,25/2/95,21,f,126,Tim took the ticket,Sensible,edin_semantics,emo_sem_emo_sem,4.9125488139689,1,2,2,1,1321120.15421903,128,A
41,1,25/2/95,21,f,127,Rose built the shed,Sensible,edin_semantics,emo_sem_emo_sem,5.53608760563657,1,1,1,1,1321126.43468374,121,A
41,1,25/2/95,21,f,128,Jay painted the portrait,Sensible,edin_semantics,emo_sem_emo_sem,6.67653997731395,1,2,2,1,1321133.85597992,110,A
41,1,25/2/95,21,f,129,The garden watered Jeff,Non-sensible,edin_semantics,emo_sem_emo_sem,1.50169437285513,1,2,2,1,1321136.10238752,54,A
41,1,25/2/95,21,f,130,Tom whisked the cream,Sensible,edin_semantics,emo_sem_emo_sem,18.5318534378894,1,1,1,1,1321155.37901864,137,A
41,1,25/2/95,21,f,131,Joe entered the office,Sensible,edin_semantics,emo_sem_emo_sem,1.61901725735515,1,1,1,1,1321157.74297074,133,A
41,1,25/2/95,21,f,132,Adam chewed the fat,Sensible,edin_semantics,emo_sem_emo_sem,1.63104432122782,2,2,2,1,1321160.11869461,106,A
41,1,25/2/95,21,f,133,The handle pulled Tim,Non-sensible,edin_semantics,emo_sem_emo_sem,6.88807454076596,2,1,1,1,1321167.75171907,73,A
41,1,25/2/95,21,f,134,Tim sniffed the perfume,Sensible,edin_semantics,emo_sem_emo_sem,2.01867402088828,2,1,1,1,1321170.51563198,93,A
41,1,25/2/95,21,f,135,The flour weighed Jen,Non-sensible,edin_semantics,emo_sem_emo_sem,1.7842181189917,1,2,2,1,1321173.04423201,64,A
41,1,25/2/95,21,f,136,Alex wrote the report,Sensible,edin_semantics,emo_sem_emo_sem,1.13692090497352,1,1,1,1,1321174.92603131,149,A
41,1,25/2/95,21,f,137,The floor cleaned Tim,Non-sensible,edin_semantics,emo_sem_emo_sem,1.20770803303458,1,1,1,1,1321176.87838907,5,A
41,1,25/2/95,21,f,138,The lolly sucked Leah,Non-sensible,edin_semantics,emo_sem_emo_sem,1.27798168547452,2,2,2,1,1321178.90131233,12,A
41,1,25/2/95,21,f,139,Anna polished the trophy,Sensible,edin_semantics,emo_sem_emo_sem,1.83030069572851,2,2,2,1,1321181.47702318,104,A
41,1,25/2/95,21,f,140,Liam mixed the nuts,Sensible,edin_semantics,emo_sem_emo_sem,1.21968346042559,1,1,1,1,1321183.44113217,83,A
41,1,25/2/95,21,f,141,The papers filed Lara,Non-sensible,edin_semantics,emo_sem_emo_sem,1.03156126034446,1,2,2,1,1321185.21707086,24,A
41,1,25/2/95,21,f,142,Jane licked the plate,Sensible,edin_semantics,emo_sem_emo_sem,8.18123758817092,2,2,2,1,1321194.14383663,96,A
41,1,25/2/95,21,f,143,Ian labeled the box,Sensible,edin_semantics,emo_sem_emo_sem,1.80781040736474,2,2,2,1,1321196.69597924,136,A
41,1,25/2/95,21,f,144,Owen swallowed the gum,Sensible,edin_semantics,emo_sem_emo_sem,2.51302290474996,2,1,2,0,1321199.95387637,97,A
41,1,25/2/95,21,f,145,Hugh dialed the hotline,Sensible,edin_semantics,emo_sem_emo_sem,1.79592734738253,1,2,2,1,1321202.49426133,138,A
41,1,25/2/95,21,f,146,The eggs whisked Dan,Non-sensible,edin_semantics,emo_sem_emo_sem,1.01925869681872,1,2,2,1,1321204.25843594,62,A
41,1,25/2/95,21,f,147,Kate hugged the pillow,Sensible,edin_semantics,emo_sem_emo_sem,1.96002107788809,2,2,2,1,1321206.96349065,86,A
41,1,25/2/95,21,f,148,John carried the kettle,Sensible,edin_semantics,emo_sem_emo_sem,3.60680962726474,2,1,1,1,1321211.31515686,105,A
41,1,25/2/95,21,f,149,The book read Sean,Non-sensible,edin_semantics,emo_sem_emo_sem,1.17245751083829,1,2,2,1,1321213.23225639,4,A
41,1,25/2/95,21,f,150,The tree hugged Amy,Non-sensible,edin_semantics,emo_sem_emo_sem,4.71305285999551,2,1,1,1,1321218.68944197,11,A
41,1,25/2/95,21,f,151,Ryan carried the gun,Sensible,edin_semantics,emo_sem_emo_sem,3.63551967171952,1,2,2,1,1321248.31588137,75,B
41,1,25/2/95,21,f,152,Tim cleaned the floor,Sensible,edin_semantics,emo_sem_emo_sem,7.33299058862031,1,2,2,1,1321256.39584563,5,B
41,1,25/2/95,21,f,153,The dessert served Fred,Non-sensible,edin_semantics,emo_sem_emo_sem,1.96015866729431,2,2,2,1,1321259.10088269,145,B
41,1,25/2/95,21,f,154,The rose kissed Hugh,Non-sensible,edin_semantics,emo_sem_emo_sem,1.27815551660024,2,1,1,1,1321261.1237556,98,B
41,1,25/2/95,21,f,155,Leo stored the wine,Sensible,edin_semantics,emo_sem_emo_sem,8.01738760620356,1,1,1,1,1321269.88585996,52,B
41,1,25/2/95,21,f,156,Will mashed the potatoes,Sensible,edin_semantics,emo_sem_emo_sem,15.2263958449475,1,1,2,0,1321285.85757134,28,B
41,1,25/2/95,21,f,157,Jon polished the coins,Sensible,edin_semantics,emo_sem_emo_sem,1.51269448571838,2,2,2,1,1321288.11570645,29,B
41,1,25/2/95,21,f,158,Carl sold the sofa,Sensible,edin_semantics,emo_sem_emo_sem,3.38361811288632,2,1,1,1,1321292.24388384,38,B
41,1,25/2/95,21,f,159,The crate lifted Amy,Non-sensible,edin_semantics,emo_sem_emo_sem,2.73665733565576,2,1,1,1,1321295.72520661,144,B
41,1,25/2/95,21,f,160,Mark washed the dishes,Sensible,edin_semantics,emo_sem_emo_sem,1.51332951453514,2,2,2,1,1321297.98334621,57,B
41,1,25/2/95,21,f,161,Kate lifted the box,Sensible,edin_semantics,emo_sem_emo_sem,7.73483403283171,1,2,2,1,1321306.46320488,69,B
41,1,25/2/95,21,f,162,The button pushed Ian,Non-sensible,edin_semantics,emo_sem_emo_sem,20.0017790433485,1,2,0,-1,1321327.20992262,101,B
41,1,25/2/95,21,f,163,Rob stroked the fur,Sensible,edin_semantics,emo_sem_emo_sem,1.63091250439174,1,2,2,1,1321329.58564424,41,B
41,1,25/2/95,21,f,164,The rope pulled Andy,Non-sensible,edin_semantics,emo_sem_emo_sem,6.9702995668631,1,1,1,1,1321337.30100533,148,B
41,1,25/2/95,21,f,165,Will licked the spoon,Sensible,edin_semantics,emo_sem_emo_sem,4.20667081908323,1,2,2,1,1321342.25247725,21,B
41,1,25/2/95,21,f,166,The socks knitted Ryan,Non-sensible,edin_semantics,emo_sem_emo_sem,1.65448522870429,1,2,2,1,1321344.65175717,141,B
41,1,25/2/95,21,f,167,The hotline dialed Hugh,Non-sensible,edin_semantics,emo_sem_emo_sem,3.43017503689043,2,1,1,1,1321348.82698411,138,B
41,1,25/2/95,21,f,168,Joe solved the puzzle,Sensible,edin_semantics,emo_sem_emo_sem,7.88827306753956,1,1,1,1,1321357.45965866,34,B
41,1,25/2/95,21,f,169,The monitor punched Erin,Non-sensible,edin_semantics,emo_sem_emo_sem,12.5805617633741,2,2,2,1,1321370.7851062,125,B
41,1,25/2/95,21,f,170,Mary iced the cake,Sensible,edin_semantics,emo_sem_emo_sem,1.33694925671443,2,1,1,1,1321372.86681005,44,B
41,1,25/2/95,21,f,171,Beth wiped the table,Sensible,edin_semantics,emo_sem_emo_sem,6.50021712854505,1,1,1,1,1321380.11170769,40,B
41,1,25/2/95,21,f,172,Tom dialed the number,Sensible,edin_semantics,emo_sem_emo_sem,3.84206765447743,2,2,2,1,1321384.6985758,63,B
41,1,25/2/95,21,f,173,Leah sucked the lolly,Sensible,edin_semantics,emo_sem_emo_sem,1.50138391414657,2,1,1,1,1321386.94495902,12,B
41,1,25/2/95,21,f,174,The office entered Joe,Non-sensible,edin_semantics,emo_sem_emo_sem,1.3015839161817,1,2,2,1,1321388.99140241,133,B
41,1,25/2/95,21,f,175,Phil chopped the herbs,Sensible,edin_semantics,emo_sem_emo_sem,2.58390656975098,2,2,2,1,1321392.31986313,27,B
41,1,25/2/95,21,f,176,Jack mixed the fruits,Sensible,edin_semantics,emo_sem_emo_sem,3.21876940387301,1,1,1,1,1321396.28335185,8,B
41,1,25/2/95,21,f,177,The hair trimmed Bill,Non-sensible,edin_semantics,emo_sem_emo_sem,2.43041044683196,2,2,2,1,1321399.45885942,107,B
41,1,25/2/95,21,f,178,The lemon squeezed Jay,Non-sensible,edin_semantics,emo_sem_emo_sem,1.74833353003487,2,1,1,1,1321401.95228719,76,B
41,1,25/2/95,21,f,179,Max kissed the mirror,Sensible,edin_semantics,emo_sem_emo_sem,1.66595327458344,2,2,2,1,1321404.3633145,23,B
41,1,25/2/95,21,f,180,Phil typed the letter,Sensible,edin_semantics,emo_sem_emo_sem,0.748407616745681,2,2,2,1,1321405.85696389,49,B
41,1,25/2/95,21,f,181,Mary visited the museum,Sensible,edin_semantics,emo_sem_emo_sem,0.901505082845688,2,1,1,1,1321407.50355167,16,B
41,1,25/2/95,21,f,182,Phil sniffed the milk,Sensible,edin_semantics,emo_sem_emo_sem,0.960343082435429,1,1,2,0,1321409.2089008,18,B
41,1,25/2/95,21,f,183,The rice stored Fred,Non-sensible,edin_semantics,emo_sem_emo_sem,4.80645375442691,1,2,2,1,1321414.76023102,127,B
41,1,25/2/95,21,f,184,Jane punched the wall,Sensible,edin_semantics,emo_sem_emo_sem,1.901077240007,1,1,1,1,1321417.4064365,50,B
41,1,25/2/95,21,f,185,The carrots grated Tom,Non-sensible,edin_semantics,emo_sem_emo_sem,2.54817592725158,2,1,1,1,1321420.69958511,140,B
41,1,25/2/95,21,f,186,Phil passed the towels,Sensible,edin_semantics,emo_sem_emo_sem,2.39518622378819,2,2,2,1,1321423.83984249,43,B
41,1,25/2/95,21,f,187,The bowl dented Ian,Non-sensible,edin_semantics,emo_sem_emo_sem,7.60509344539605,1,1,1,1,1321432.19024442,146,B
41,1,25/2/95,21,f,188,The internet searched Max,Non-sensible,edin_semantics,emo_sem_emo_sem,1.4656535924878,2,2,2,1,1321434.40139091,85,B
41,1,25/2/95,21,f,189,Ella watched the movie,Sensible,edin_semantics,emo_sem_emo_sem,1.45426444406621,2,2,2,1,1321436.60071784,33,B
41,1,25/2/95,21,f,190,Rob mailed the parcel,Sensible,edin_semantics,emo_sem_emo_sem,1.30170226260088,2,1,1,1,1321438.64711665,14,B
41,1,25/2/95,21,f,191,The rope pulled Emma,Non-sensible,edin_semantics,emo_sem_emo_sem,2.30114805535413,1,1,1,1,1321441.69328293,120,B
41,1,25/2/95,21,f,192,Andy grated the cheese,Sensible,edin_semantics,emo_sem_emo_sem,3.11261629359797,1,2,2,1,1321445.55097358,65,B
41,1,25/2/95,21,f,193,The bath cleaned Jack,Non-sensible,edin_semantics,emo_sem_emo_sem,11.73362138425,1,1,1,1,1321458.0296039,80,B
41,1,25/2/95,21,f,194,The plants watered Luke,Non-sensible,edin_semantics,emo_sem_emo_sem,1.26609509787522,2,2,2,1,1321460.04076277,129,B
41,1,25/2/95,21,f,195,The turnip mashed Ella,Non-sensible,edin_semantics,emo_sem_emo_sem,6.17070765304379,1,2,2,1,1321466.95636004,103,B
41,1,25/2/95,21,f,196,The garage tidied Erin,Non-sensible,edin_semantics,emo_sem_emo_sem,17.6258714008145,1,2,2,1,1321485.32734717,77,B
41,1,25/2/95,21,f,197,The shed built Rose,Non-sensible,edin_semantics,emo_sem_emo_sem,2.71286267205141,1,2,2,1,1321488.78509497,121,B
41,1,25/2/95,21,f,198,The message typed Eve,Non-sensible,edin_semantics,emo_sem_emo_sem,0.972220369148999,2,1,1,1,1321490.5023108,124,B
41,1,25/2/95,21,f,199,The problem solved Phil,Non-sensible,edin_semantics,emo_sem_emo_sem,4.25327136134729,1,2,2,1,1321495.50075754,109,B
41,1,25/2/95,21,f,200,The opera watched Adam,Non-sensible,edin_semantics,emo_sem_emo_sem,0.960515951504931,2,1,1,1,1321497.20617819,108,B
41,1,25/2/95,21,f,201,Mike paid the bill,Sensible,edin_semantics,emo_sem_emo_sem,6.42926162178628,1,2,2,1,1321504.38046542,59,B
41,1,25/2/95,21,f,202,Dan carried the folder,Sensible,edin_semantics,emo_sem_emo_sem,2.54811691469513,1,1,1,1,1321507.67353482,30,B
41,1,25/2/95,21,f,203,The plate licked Jane,Non-sensible,edin_semantics,emo_sem_emo_sem,0.924753236817196,2,1,1,1,1321509.34363342,96,B
41,1,25/2/95,21,f,204,The debt paid Zoe,Non-sensible,edin_semantics,emo_sem_emo_sem,0.806794040137902,2,1,1,1,1321510.89610541,134,B
41,1,25/2/95,21,f,205,Kate served the dish,Sensible,edin_semantics,emo_sem_emo_sem,0.654738598968834,2,1,1,1,1321512.29569001,70,B
41,1,25/2/95,21,f,206,The perfume sniffed Tim,Non-sensible,edin_semantics,emo_sem_emo_sem,1.30146813578904,2,2,2,1,1321514.3421427,93,B
41,1,25/2/95,21,f,207,The gift posted Jack,Non-sensible,edin_semantics,emo_sem_emo_sem,0.984018116723746,2,2,2,1,1321516.07103793,111,B
41,1,25/2/95,21,f,208,Erin posted the card,Sensible,edin_semantics,emo_sem_emo_sem,1.16019054735079,1,1,1,1,1321517.976341,36,B
41,1,25/2/95,21,f,209,The gum swallowed Owen,Non-sensible,edin_semantics,emo_sem_emo_sem,1.28974447445944,2,2,2,1,1321520.01106522,97,B
41,1,25/2/95,21,f,210,Sean read the book,Sensible,edin_semantics,emo_sem_emo_sem,1.30191393871792,1,1,1,1,1321522.05750733,4,B
41,1,25/2/95,21,f,211,Bill counted the sheets,Sensible,edin_semantics,emo_sem_emo_sem,0.796197074465454,2,1,1,1,1321523.59822006,48,B
41,1,25/2/95,21,f,212,John described the pen,Sensible,edin_semantics,emo_sem_emo_sem,1.93740217993036,1,1,1,1,1321526.27990281,42,B
41,1,25/2/95,21,f,213,Jen searched the room,Sensible,edin_semantics,emo_sem_emo_sem,0.901897646253929,2,1,1,1,1321527.92633472,10,B
41,1,25/2/95,21,f,214,Ryan entered the room,Sensible,edin_semantics,emo_sem_emo_sem,2.18414236465469,1,1,1,1,1321530.85484521,58,B
41,1,25/2/95,21,f,215,The nuts mixed Liam,Non-sensible,edin_semantics,emo_sem_emo_sem,0.901996749220416,2,2,2,1,1321532.50145127,83,B
41,1,25/2/95,21,f,216,The party cancelled Phil,Non-sensible,edin_semantics,emo_sem_emo_sem,18.5675956262276,1,1,1,1,1321551.81336306,82,B
41,1,25/2/95,21,f,217,The dress wore Kate,Non-sensible,edin_semantics,emo_sem_emo_sem,1.24245855002664,2,1,1,1,1321553.80092034,100,B
41,1,25/2/95,21,f,218,The beer drank Jack,Non-sensible,edin_semantics,emo_sem_emo_sem,2.85388592816889,1,2,2,1,1321557.39986106,135,B
41,1,25/2/95,21,f,219,The donut iced Joe,Non-sensible,edin_semantics,emo_sem_emo_sem,2.2073263740167,2,2,2,1,1321560.35190996,119,B
41,1,25/2/95,21,f,220,The sweets offered Tom,Non-sensible,edin_semantics,emo_sem_emo_sem,1.03107087709941,1,1,1,1,1321562.12783775,84,B
41,1,25/2/95,21,f,221,Jake dusted the shelf,Sensible,edin_semantics,emo_sem_emo_sem,1.45463648112491,1,2,2,1,1321564.32720349,47,B
41,1,25/2/95,21,f,222,The onion sliced Liam,Non-sensible,edin_semantics,emo_sem_emo_sem,1.23091866238974,2,1,1,1,1321566.30305988,78,B
41,1,25/2/95,21,f,223,The fat chewed Adam,Non-sensible,edin_semantics,emo_sem_emo_sem,3.38337885448709,2,1,1,1,1321570.43124368,106,B
41,1,25/2/95,21,f,224,The car lent Fred,Non-sensible,edin_semantics,emo_sem_emo_sem,1.70123779331334,1,1,1,1,1321572.87755743,94,B
41,1,25/2/95,21,f,225,The curtains measured Rob,Non-sensible,edin_semantics,emo_sem_emo_sem,2.27746853069402,2,1,2,0,1321575.90020584,126,B
41,1,25/2/95,21,f,226,The report wrote Alex,Non-sensible,edin_semantics,emo_sem_emo_sem,1.39532156824134,2,2,2,1,1321578.04074545,149,B
41,1,25/2/95,21,f,227,Beth took the photo,Sensible,edin_semantics,emo_sem_emo_sem,0.901605789549649,1,2,2,1,1321579.68729666,53,B
41,1,25/2/95,21,f,228,The portrait painted Jay,Non-sensible,edin_semantics,emo_sem_emo_sem,1.78330566571094,1,1,1,1,1321582.21595764,110,B
41,1,25/2/95,21,f,229,Ian cancelled the plans,Sensible,edin_semantics,emo_sem_emo_sem,9.72263923147693,1,2,2,1,1321592.68342587,7,B
41,1,25/2/95,21,f,230,The poster read Luke,Non-sensible,edin_semantics,emo_sem_emo_sem,2.50136563298292,2,2,2,1,1321595.9295166,79,B
41,1,25/2/95,21,f,231,The ticket took Tim,Non-sensible,edin_semantics,emo_sem_emo_sem,2.71245246892795,2,1,1,1,1321599.38728973,128,B
41,1,25/2/95,21,f,232,Matt kicked the bike,Sensible,edin_semantics,emo_sem_emo_sem,2.20690302131698,2,2,2,1,1321602.33941112,39,B
41,1,25/2/95,21,f,233,Ben chewed the toffee,Sensible,edin_semantics,emo_sem_emo_sem,1.46628733840771,2,2,2,1,1321604.55044279,31,B
41,1,25/2/95,21,f,234,The shoes counted Lucy,Non-sensible,edin_semantics,emo_sem_emo_sem,1.28984069102444,1,2,2,1,1321606.58514712,123,B
41,1,25/2/95,21,f,235,Jon trimmed the bushes,Sensible,edin_semantics,emo_sem_emo_sem,1.56045347475447,2,1,1,1,1321608.89034589,32,B
41,1,25/2/95,21,f,236,Jen weighed the flour,Sensible,edin_semantics,emo_sem_emo_sem,6.94704403635114,1,1,1,1,1321616.58215286,64,B
41,1,25/2/95,21,f,237,Erin crushed the garlic,Sensible,edin_semantics,emo_sem_emo_sem,2.21899230522104,1,1,1,1,1321619.5460133,6,B
41,1,25/2/95,21,f,238,The house dusted Alex,Non-sensible,edin_semantics,emo_sem_emo_sem,1.18382068071514,1,1,1,1,1321621.47482559,122,B
41,1,25/2/95,21,f,239,The desk wiped Lucy,Non-sensible,edin_semantics,emo_sem_emo_sem,1.4194019951392,1,2,2,1,1321623.63888148,115,B
41,1,25/2/95,21,f,240,The bed sold Jay,Non-sensible,edin_semantics,emo_sem_emo_sem,3.01889114966616,2,2,2,1,1321627.402448,113,B
41,1,25/2/95,21,f,241,Dan whisked the eggs,Sensible,edin_semantics,emo_sem_emo_sem,2.41906619956717,1,1,1,1,1321630.56620883,62,B
41,1,25/2/95,21,f,242,Kate built the house,Sensible,edin_semantics,emo_sem_emo_sem,8.74652273510583,1,1,1,1,1321640.05750476,46,B
41,1,25/2/95,21,f,243,The kettle carried John,Non-sensible,edin_semantics,emo_sem_emo_sem,2.31264304183424,1,2,2,1,1321643.11539695,105,B
41,1,25/2/95,21,f,244,Josh ironed the shirt,Sensible,edin_semantics,emo_sem_emo_sem,1.56017444701865,2,2,2,1,1321645.4205845,55,B
41,1,25/2/95,21,f,245,Tim ate the ham,Sensible,edin_semantics,emo_sem_emo_sem,4.65373281575739,1,2,2,1,1321650.81899365,67,B
41,1,25/2/95,21,f,246,Liz labeled the jar,Sensible,edin_semantics,emo_sem_emo_sem,1.71262181014754,2,2,2,1,1321653.27706987,61,B
41,1,25/2/95,21,f,247,Amy measured the thread,Sensible,edin_semantics,emo_sem_emo_sem,3.12431269325316,1,2,2,1,1321657.14648162,51,B
41,1,25/2/95,21,f,248,Liz sliced the tomato,Sensible,edin_semantics,emo_sem_emo_sem,6.05318175186403,1,2,2,1,1321663.94444362,3,B
41,1,25/2/95,21,f,249,Jeff watered the garden,Sensible,edin_semantics,emo_sem_emo_sem,1.59529668046162,2,1,1,1,1321666.28493461,54,B
41,1,25/2/95,21,f,250,Carl brushed the teeth,Sensible,edin_semantics,emo_sem_emo_sem,1.12511385628022,2,1,1,1,1321668.15494675,72,B
41,1,25/2/95,21,f,251,The salt passed Leo,Non-sensible,edin_semantics,emo_sem_emo_sem,3.05371831916273,1,1,1,1,1321671.95381223,118,B
41,1,25/2/95,21,f,252,Tim pulled the handle,Sensible,edin_semantics,emo_sem_emo_sem,2.13631730666384,1,2,2,1,1321674.83532031,73,B
41,1,25/2/95,21,f,253,The pot scrubbed Josh,Non-sensible,edin_semantics,emo_sem_emo_sem,1.40742817125283,1,2,2,1,1321676.98761405,131,B
41,1,25/2/95,21,f,254,Lily got the kettle,Sensible,edin_semantics,emo_sem_emo_sem,1.56065424648114,2,2,2,1,1321679.29278556,13,B
41,1,25/2/95,21,f,255,The door kicked Max,Non-sensible,edin_semantics,emo_sem_emo_sem,1.60741963982582,1,1,1,1,1321681.64535011,114,B
41,1,25/2/95,21,f,256,The carrots chopped Fred,Non-sensible,edin_semantics,emo_sem_emo_sem,1.13637599884532,1,1,1,1,1321683.52682837,102,B
41,1,25/2/95,21,f,257,Lily dented the lorry,Sensible,edin_semantics,emo_sem_emo_sem,2.70131604932249,2,2,2,1,1321686.97283006,71,B
41,1,25/2/95,21,f,258,The hospital visited Tom,Non-sensible,edin_semantics,emo_sem_emo_sem,2.59531496139243,2,2,2,1,1321690.31307377,91,B
41,1,25/2/95,21,f,259,The pillow hugged Kate,Non-sensible,edin_semantics,emo_sem_emo_sem,4.93572288099676,1,1,1,1,1321695.99369718,86,B
41,1,25/2/95,21,f,260,The stairs climbed Ben,Non-sensible,edin_semantics,emo_sem_emo_sem,1.16025854018517,2,2,2,1,1321697.89900955,143,B
41,1,25/2/95,21,f,261,Eve taught the lesson,Sensible,edin_semantics,emo_sem_emo_sem,1.1723199209664,2,2,2,1,1321699.81606931,15,B
41,1,25/2/95,21,f,262,Amy hugged the tree,Sensible,edin_semantics,emo_sem_emo_sem,0.901432599872351,2,2,2,1,1321701.46262566,11,B
41,1,25/2/95,21,f,263,Joe wore the jumper,Sensible,edin_semantics,emo_sem_emo_sem,1.6420620738063,2,2,2,1,1321703.8501476,25,B
41,1,25/2/95,21,f,264,Matt pushed the trolley,Sensible,edin_semantics,emo_sem_emo_sem,1.61894445354119,2,1,1,1,1321706.21419335,26,B
41,1,25/2/95,21,f,265,Josh squeezed the ball,Sensible,edin_semantics,emo_sem_emo_sem,2.12483194167726,2,2,2,1,1321709.08387418,1,B
41,1,25/2/95,21,f,266,The church described Erin,Non-sensible,edin_semantics,emo_sem_emo_sem,1.70114189758897,2,2,2,1,1321711.53021038,117,B
41,1,25/2/95,21,f,267,The trousers ironed Eve,Non-sensible,edin_semantics,emo_sem_emo_sem,1.38388238754123,1,1,1,1,1321713.65922068,130,B
41,1,25/2/95,21,f,268,The candy sucked Sam,Non-sensible,edin_semantics,emo_sem_emo_sem,2.35951908421703,2,2,2,1,1321716.76394626,87,B
41,1,25/2/95,21,f,269,Tom knitted the scarf,Sensible,edin_semantics,emo_sem_emo_sem,1.04272365849465,1,1,1,1,1321718.5516843,66,B
41,1,25/2/95,21,f,270,Liz scrubbed the bowl,Sensible,edin_semantics,emo_sem_emo_sem,3.30054413643666,1,1,1,1,1321722.59748913,56,B
41,1,25/2/95,21,f,271,Lara filed the papers,Sensible,edin_semantics,emo_sem_emo_sem,2.61902174749412,2,1,1,1,1321725.96120871,24,B
41,1,25/2/95,21,f,272,The report filed Ian,Non-sensible,edin_semantics,emo_sem_emo_sem,2.59519886015914,2,2,2,1,1321729.30137224,99,B
41,1,25/2/95,21,f,273,Sam tidied the room,Sensible,edin_semantics,emo_sem_emo_sem,4.40636177151464,1,1,1,1,1321734.45278656,2,B
41,1,25/2/95,21,f,274,Jon cut the paper,Sensible,edin_semantics,emo_sem_emo_sem,1.70077306753956,2,1,1,1,1321736.8990769,20,B
41,1,25/2/95,21,f,275,Matt drank the juice,Sensible,edin_semantics,emo_sem_emo_sem,1.16015975782648,1,1,1,1,1321738.80441236,60,B
41,1,25/2/95,21,f,276,Luke climbed the hill,Sensible,edin_semantics,emo_sem_emo_sem,10.1577543450985,1,1,1,1,1321749.70704157,68,B
41,1,25/2/95,21,f,277,The rules taught Josh,Non-sensible,edin_semantics,emo_sem_emo_sem,20.0019198402297,1,1,0,-1,1321770.45376797,90,B
41,1,25/2/95,21,f,278,The ice crushed Josh,Non-sensible,edin_semantics,emo_sem_emo_sem,1.21897274139337,2,2,2,1,1321772.41789653,81,B
41,1,25/2/95,21,f,279,Max lent the bucket,Sensible,edin_semantics,emo_sem_emo_sem,4.12440923065878,1,2,2,1,1321777.28702283,19,B
41,1,25/2/95,21,f,280,The hair brushed Dan,Non-sensible,edin_semantics,emo_sem_emo_sem,1.73705535149202,1,2,2,1,1321779.76863297,147,B
41,1,25/2/95,21,f,281,The cream whisked Tom,Non-sensible,edin_semantics,emo_sem_emo_sem,1.3010816660244,2,2,2,1,1321781.81506545,137,B
41,1,25/2/95,21,f,282,The sugar weighed Liz,Non-sensible,edin_semantics,emo_sem_emo_sem,0.736937005305663,2,2,2,1,1321783.29696969,139,B
41,1,25/2/95,21,f,283,Jen fixed the laptop,Sensible,edin_semantics,emo_sem_emo_sem,0.984114654129371,2,2,2,1,1321785.02587871,37,B
41,1,25/2/95,21,f,284,The ribbon cut Lucy,Non-sensible,edin_semantics,emo_sem_emo_sem,0.983953010290861,1,2,2,1,1321786.75478453,95,B
41,1,25/2/95,21,f,285,The invite mailed Ian,Non-sensible,edin_semantics,emo_sem_emo_sem,1.67773594846949,2,2,2,1,1321789.17757655,89,B
41,1,25/2/95,21,f,286,Luke swallowed the pill,Sensible,edin_semantics,emo_sem_emo_sem,1.67765191942453,2,1,1,1,1321791.60036954,22,B
41,1,25/2/95,21,f,287,Matt offered the money,Sensible,edin_semantics,emo_sem_emo_sem,1.56033673207276,1,2,2,1,1321793.90559621,9,B
41,1,25/2/95,21,f,288,The blanket stroked Ryan,Non-sensible,edin_semantics,emo_sem_emo_sem,9.58177248761058,1,1,1,1,1321804.23189173,116,B
41,1,25/2/95,21,f,289,Hugh pulled the lever,Sensible,edin_semantics,emo_sem_emo_sem,16.1793405192439,1,2,2,1,1321821.1562338,45,B
41,1,25/2/95,21,f,290,The radio fixed Luke,Non-sensible,edin_semantics,emo_sem_emo_sem,2.4067062267568,1,1,1,1,1321824.30822927,112,B
41,1,25/2/95,21,f,291,The steak ate Mike,Non-sensible,edin_semantics,emo_sem_emo_sem,1.57162549463101,2,1,1,1,1321826.62521681,142,B
41,1,25/2/95,21,f,292,Ewan wrote the story,Sensible,edin_semantics,emo_sem_emo_sem,1.34850967023522,1,1,1,1,1321828.71868954,74,B
41,1,25/2/95,21,f,293,Jon jumped the fence,Sensible,edin_semantics,emo_sem_emo_sem,1.33679883810692,1,2,2,1,1321830.8004399,17,B
41,1,25/2/95,21,f,294,Ryan painted the picture,Sensible,edin_semantics,emo_sem_emo_sem,1.76018034829758,1,2,2,1,1321833.30560512,35,B
41,1,25/2/95,21,f,295,The hedge jumped Sara,Non-sensible,edin_semantics,emo_sem_emo_sem,18.5314627988264,1,1,1,1,1321852.58217724,92,B
41,1,25/2/95,21,f,296,The radio got Ben,Non-sensible,edin_semantics,emo_sem_emo_sem,1.98330515273847,2,1,1,1,1321855.31074405,88,B
41,1,25/2/95,21,f,297,The wallet carried Leo,Non-sensible,edin_semantics,emo_sem_emo_sem,2.39526512124576,2,1,1,1,1321858.45096518,150,B
41,1,25/2/95,21,f,298,The box labeled Ian,Non-sensible,edin_semantics,emo_sem_emo_sem,1.11323304148391,2,1,1,1,1321860.30921741,136,B
41,1,25/2/95,21,f,299,The pan washed Beth,Non-sensible,edin_semantics,emo_sem_emo_sem,0.772616973612458,2,1,1,1,1321861.82640906,132,B
41,1,25/2/95,21,f,300,The trophy polished Anna,Non-sensible,edin_semantics,emo_sem_emo_sem,0.995824844809249,1,1,1,1,1321863.56709722,104,B
