subject_column,AssignedList_column,subject_dob_column,subject_age_column,subject_gender_column,trialnum_column,Stim_column,Type_column,Experiment_column,OrderGroup_column,ReactionTime_column,StimSide_column,StimPosition_column,Response_column,Valid_column,TrialEndSecs_column,PairID_column,List_column
42,2,11/1/94,22,f,1,The movie watched Ella,Non-sensible,edin_semantics,sem_emo_sem_emo,1.43590954109095,1,2,2,1,1492082.53460972,33,A
42,2,11/1/94,22,f,2,Ian mailed the invite,Sensible,edin_semantics,sem_emo_sem_emo,1.11058901203796,1,2,2,1,1492084.39285778,89,A
42,2,11/1/94,22,f,3,The dish served Kate,Non-sensible,edin_semantics,sem_emo_sem_emo,1.08798005641438,2,1,1,1,1492086.22760432,70,A
42,2,11/1/94,22,f,4,Jay sold the bed,Sensible,edin_semantics,sem_emo_sem_emo,0.853446218883619,2,2,2,1,1492087.82718296,113,A
42,2,11/1/94,22,f,5,Ian labeled the box,Sensible,edin_semantics,sem_emo_sem_emo,0.855820200871676,2,1,1,1,1492089.42666923,136,A
42,2,11/1/94,22,f,6,The flour weighed Jen,Non-sensible,edin_semantics,sem_emo_sem_emo,0.761505249654874,1,1,1,1,1492090.93208397,64,A
42,2,11/1/94,22,f,7,The gun carried Ryan,Non-sensible,edin_semantics,sem_emo_sem_emo,1.32648250414059,1,2,2,1,1492093.00219406,75,A
42,2,11/1/94,22,f,8,Kate hugged the pillow,Sensible,edin_semantics,sem_emo_sem_emo,0.807759412564337,1,1,1,1,1492094.55471833,86,A
42,2,11/1/94,22,f,9,The handle pulled Tim,Non-sensible,edin_semantics,sem_emo_sem_emo,0.890240374486893,2,2,2,1,1492096.18932715,73,A
42,2,11/1/94,22,f,10,The milk sniffed Phil,Non-sensible,edin_semantics,sem_emo_sem_emo,0.92601527646184,2,1,1,1,1492097.85939336,18,A
42,2,11/1/94,22,f,11,Ben got the radio,Sensible,edin_semantics,sem_emo_sem_emo,0.808862053789198,2,1,1,1,1492099.41192052,88,A
42,2,11/1/94,22,f,12,The table wiped Beth,Non-sensible,edin_semantics,sem_emo_sem_emo,1.0088698794134,1,1,1,1,1492101.1643362,40,A
42,2,11/1/94,22,f,13,The shelf dusted Jake,Non-sensible,edin_semantics,sem_emo_sem_emo,0.926924201892689,2,2,2,1,1492102.83445757,47,A
42,2,11/1/94,22,f,14,The ball squeezed Josh,Non-sensible,edin_semantics,sem_emo_sem_emo,0.938496803166345,1,2,2,1,1492104.51623654,1,A
42,2,11/1/94,22,f,15,The eggs whisked Dan,Non-sensible,edin_semantics,sem_emo_sem_emo,1.06796573917381,2,1,1,1,1492106.32744531,62,A
42,2,11/1/94,22,f,16,Lucy counted the shoes,Sensible,edin_semantics,sem_emo_sem_emo,0.926168260863051,1,2,2,1,1492107.9975468,123,A
42,2,11/1/94,22,f,17,The letter typed Phil,Non-sensible,edin_semantics,sem_emo_sem_emo,0.879766886588186,2,2,2,1,1492109.62057276,49,A
42,2,11/1/94,22,f,18,Josh taught the rules,Sensible,edin_semantics,sem_emo_sem_emo,1.11471605859697,1,1,1,1,1492111.47885738,90,A
42,2,11/1/94,22,f,19,Amy lifted the crate,Sensible,edin_semantics,sem_emo_sem_emo,1.25554078817368,1,1,1,1,1492113.47823454,144,A
42,2,11/1/94,22,f,20,The fence jumped Jon,Non-sensible,edin_semantics,sem_emo_sem_emo,0.949938228819519,1,2,2,1,1492115.17186193,17,A
42,2,11/1/94,22,f,21,Max kicked the door,Sensible,edin_semantics,sem_emo_sem_emo,1.42029071506113,1,1,1,1,1492117.3359191,114,A
42,2,11/1/94,22,f,22,The ham ate Tim,Non-sensible,edin_semantics,sem_emo_sem_emo,0.902520487550646,1,2,2,1,1492118.98245941,67,A
42,2,11/1/94,22,f,23,The fur stroked Rob,Non-sensible,edin_semantics,sem_emo_sem_emo,0.938515404937789,1,2,2,1,1492120.66430412,41,A
42,2,11/1/94,22,f,24,Josh scrubbed the pot,Sensible,edin_semantics,sem_emo_sem_emo,0.915095985634252,2,2,2,1,1492122.32265886,131,A
42,2,11/1/94,22,f,25,The museum visited Mary,Non-sensible,edin_semantics,sem_emo_sem_emo,0.891360976034775,2,1,1,1,1492123.95745466,16,A
42,2,11/1/94,22,f,26,Lucy cut the ribbon,Sensible,edin_semantics,sem_emo_sem_emo,0.926855567377061,1,2,2,1,1492125.62752472,95,A
42,2,11/1/94,22,f,27,The plans cancelled Ian,Non-sensible,edin_semantics,sem_emo_sem_emo,0.855862215394154,2,2,2,1,1492127.22704082,7,A
42,2,11/1/94,22,f,28,Jane licked the plate,Sensible,edin_semantics,sem_emo_sem_emo,0.820899701444432,1,1,1,1,1492128.79127271,96,A
42,2,11/1/94,22,f,29,Erin described the church,Sensible,edin_semantics,sem_emo_sem_emo,0.855990824755281,1,2,2,1,1492130.39082281,117,A
42,2,11/1/94,22,f,30,The wall punched Jane,Non-sensible,edin_semantics,sem_emo_sem_emo,1.14994316804223,1,1,1,1,1492132.28436982,50,A
42,2,11/1/94,22,f,31,Tom grated the carrots,Sensible,edin_semantics,sem_emo_sem_emo,1.04402097780257,2,1,1,1,1492134.07205173,140,A
42,2,11/1/94,22,f,32,Leo passed the salt,Sensible,edin_semantics,sem_emo_sem_emo,0.950173318153247,2,1,1,1,1492135.76568393,118,A
42,2,11/1/94,22,f,33,Emma pulled the rope,Sensible,edin_semantics,sem_emo_sem_emo,1.12602663016878,2,1,1,1,1492137.63567683,120,A
42,2,11/1/94,22,f,34,The jumper wore Joe,Non-sensible,edin_semantics,sem_emo_sem_emo,0.938670313451439,1,2,2,1,1492139.31754752,25,A
42,2,11/1/94,22,f,35,The bowl scrubbed Liz,Non-sensible,edin_semantics,sem_emo_sem_emo,1.19700971920975,1,1,1,1,1492141.2581428,56,A
42,2,11/1/94,22,f,36,Eve ironed the trousers,Sensible,edin_semantics,sem_emo_sem_emo,0.96176997339353,1,1,1,1,1492142.96351791,130,A
42,2,11/1/94,22,f,37,The kettle got Lily,Non-sensible,edin_semantics,sem_emo_sem_emo,1.46769402385689,1,2,2,1,1492145.17460667,13,A
42,2,11/1/94,22,f,38,Andy pulled the rope,Sensible,edin_semantics,sem_emo_sem_emo,1.02061727386899,1,1,1,1,1492146.93881239,148,A
42,2,11/1/94,22,f,39,The herbs chopped Phil,Non-sensible,edin_semantics,sem_emo_sem_emo,0.867592290975153,1,2,2,1,1492148.55005311,27,A
42,2,11/1/94,22,f,40,Rob measured the curtains,Sensible,edin_semantics,sem_emo_sem_emo,0.891728523187339,1,1,1,1,1492150.18489959,126,A
42,2,11/1/94,22,f,41,Joe iced the donut,Sensible,edin_semantics,sem_emo_sem_emo,0.738468772033229,1,2,2,1,1492151.66676438,119,A
42,2,11/1/94,22,f,42,The room entered Ryan,Non-sensible,edin_semantics,sem_emo_sem_emo,0.785565791418776,1,1,1,1,1492153.19570085,58,A
42,2,11/1/94,22,f,43,Adam chewed the fat,Sensible,edin_semantics,sem_emo_sem_emo,1.66740935132839,2,1,1,1,1492155.60674516,106,A
42,2,11/1/94,22,f,44,The puzzle solved Joe,Non-sensible,edin_semantics,sem_emo_sem_emo,2.49060509935953,1,1,1,1,1492158.84107149,34,A
42,2,11/1/94,22,f,45,John carried the kettle,Sensible,edin_semantics,sem_emo_sem_emo,1.13826344581321,1,2,2,1,1492160.7228663,105,A
42,2,11/1/94,22,f,46,The garlic crushed Erin,Non-sensible,edin_semantics,sem_emo_sem_emo,1.14986010128632,2,1,1,1,1492162.61645116,6,A
42,2,11/1/94,22,f,47,Luke fixed the radio,Sensible,edin_semantics,sem_emo_sem_emo,0.985265082679689,1,1,1,1,1492164.34533517,112,A
42,2,11/1/94,22,f,48,Ryan stroked the blanket,Sensible,edin_semantics,sem_emo_sem_emo,1.0312277097255,2,1,1,1,1492166.12123569,116,A
42,2,11/1/94,22,f,49,The photo took Beth,Non-sensible,edin_semantics,sem_emo_sem_emo,0.831564660184085,2,2,2,1,1492167.69724513,53,A
42,2,11/1/94,22,f,50,Luke read the poster,Sensible,edin_semantics,sem_emo_sem_emo,0.890378926182166,1,2,2,1,1492169.33203708,79,A
42,2,11/1/94,22,f,51,Jack drank the beer,Sensible,edin_semantics,sem_emo_sem_emo,1.64421187131666,1,2,2,1,1492171.71954876,135,A
42,2,11/1/94,22,f,52,Liz weighed the sugar,Sensible,edin_semantics,sem_emo_sem_emo,0.820632540155202,2,2,2,1,1492173.28384223,139,A
42,2,11/1/94,22,f,53,The room tidied Sam,Non-sensible,edin_semantics,sem_emo_sem_emo,0.973273298470303,1,1,1,1,1492175.00093362,2,A
42,2,11/1/94,22,f,54,Fred lent the car,Sensible,edin_semantics,sem_emo_sem_emo,1.25609146710485,2,1,1,1,1492177.00031431,94,A
42,2,11/1/94,22,f,55,Fred stored the rice,Sensible,edin_semantics,sem_emo_sem_emo,0.997508954489604,2,2,2,1,1492178.74097457,127,A
42,2,11/1/94,22,f,56,Josh crushed the ice,Sensible,edin_semantics,sem_emo_sem_emo,1.35035189590417,1,2,2,1,1492180.83447264,81,A
42,2,11/1/94,22,f,57,Adam watched the opera,Sensible,edin_semantics,sem_emo_sem_emo,3.80838514049537,1,1,1,1,1492185.38603828,108,A
42,2,11/1/94,22,f,58,Ben climbed the stairs,Sensible,edin_semantics,sem_emo_sem_emo,2.02020161855035,2,2,2,1,1492188.14994702,143,A
42,2,11/1/94,22,f,59,Hugh kissed the rose,Sensible,edin_semantics,sem_emo_sem_emo,3.87795705418102,1,1,2,0,1492192.77205571,98,A
42,2,11/1/94,22,f,60,The paper cut Jon,Non-sensible,edin_semantics,sem_emo_sem_emo,1.43068562587723,1,1,2,0,1492194.94788272,20,A
42,2,11/1/94,22,f,61,Jack posted the gift,Sensible,edin_semantics,sem_emo_sem_emo,1.52565324585885,2,2,2,1,1492197.21779537,111,A
42,2,11/1/94,22,f,62,The bucket lent Max,Non-sensible,edin_semantics,sem_emo_sem_emo,1.10200393339619,1,2,2,1,1492199.06432587,19,A
42,2,11/1/94,22,f,63,Jack cleaned the bath,Sensible,edin_semantics,sem_emo_sem_emo,0.890461993170902,1,1,1,1,1492200.69907998,80,A
42,2,11/1/94,22,f,64,The hill climbed Luke,Non-sensible,edin_semantics,sem_emo_sem_emo,1.39655089471489,1,1,1,1,1492202.83961959,68,A
42,2,11/1/94,22,f,65,The pill swallowed Luke,Non-sensible,edin_semantics,sem_emo_sem_emo,1.18499644636177,1,1,1,1,1492204.76849987,22,A
42,2,11/1/94,22,f,66,Fred chopped the carrots,Sensible,edin_semantics,sem_emo_sem_emo,0.984742306405678,2,1,1,1,1492206.49734314,102,A
42,2,11/1/94,22,f,67,Ryan knitted the socks,Sensible,edin_semantics,sem_emo_sem_emo,0.797048911219463,2,2,2,1,1492208.03805684,141,A
42,2,11/1/94,22,f,68,Owen swallowed the gum,Sensible,edin_semantics,sem_emo_sem_emo,1.02044536685571,2,2,2,1,1492209.80223049,97,A
42,2,11/1/94,22,f,69,Ian dented the bowl,Sensible,edin_semantics,sem_emo_sem_emo,1.09125173813663,1,1,1,1,1492211.63697511,146,A
42,2,11/1/94,22,f,70,Liam sliced the onion,Sensible,edin_semantics,sem_emo_sem_emo,1.47934840898961,2,1,1,1,1492213.85986867,78,A
42,2,11/1/94,22,f,71,The book read Sean,Non-sensible,edin_semantics,sem_emo_sem_emo,0.891189710702747,2,1,1,1,1492215.49466095,4,A
42,2,11/1/94,22,f,72,Beth washed the pan,Sensible,edin_semantics,sem_emo_sem_emo,0.89130356698297,1,1,1,1,1492217.12944264,132,A
42,2,11/1/94,22,f,73,Erin tidied the garage,Sensible,edin_semantics,sem_emo_sem_emo,0.774071767460555,1,2,2,1,1492218.6466779,77,A
42,2,11/1/94,22,f,74,Ella mashed the turnip,Sensible,edin_semantics,sem_emo_sem_emo,0.914710798766464,2,2,2,1,1492220.30498068,103,A
42,2,11/1/94,22,f,75,Rose built the shed,Sensible,edin_semantics,sem_emo_sem_emo,1.02035909285769,2,2,2,1,1492222.06915241,121,A
42,2,11/1/94,22,f,76,The lever pulled Hugh,Non-sensible,edin_semantics,sem_emo_sem_emo,0.85600333311595,1,2,2,1,1492223.66865503,45,A
42,2,11/1/94,22,f,77,The sheets counted Bill,Non-sensible,edin_semantics,sem_emo_sem_emo,0.867790817515925,1,1,1,1,1492225.27999614,48,A
42,2,11/1/94,22,f,78,Ian pushed the button,Sensible,edin_semantics,sem_emo_sem_emo,0.984909723279998,2,2,1,0,1492227.00887245,101,A
42,2,11/1/94,22,f,79,Liam mixed the nuts,Sensible,edin_semantics,sem_emo_sem_emo,1.94956715404987,2,2,2,1,1492229.70216051,83,A
42,2,11/1/94,22,f,80,The juice drank Matt,Non-sensible,edin_semantics,sem_emo_sem_emo,0.96171673364006,2,1,1,1,1492231.40759463,60,A
42,2,11/1/94,22,f,81,Zoe paid the debt,Sensible,edin_semantics,sem_emo_sem_emo,1.03288167156279,2,1,1,1,1492233.1835022,134,A
42,2,11/1/94,22,f,82,Eve typed the message,Sensible,edin_semantics,sem_emo_sem_emo,1.29106103722006,1,1,1,1,1492235.21813085,124,A
42,2,11/1/94,22,f,83,Tom whisked the cream,Sensible,edin_semantics,sem_emo_sem_emo,1.05586875812151,1,2,2,1,1492237.01762719,137,A
42,2,11/1/94,22,f,84,The papers filed Lara,Non-sensible,edin_semantics,sem_emo_sem_emo,1.98514930228703,2,1,1,1,1492239.74618598,24,A
42,2,11/1/94,22,f,85,Joe entered the office,Sensible,edin_semantics,sem_emo_sem_emo,0.761435011634603,2,2,2,1,1492241.25163889,133,A
42,2,11/1/94,22,f,86,The room searched Jen,Non-sensible,edin_semantics,sem_emo_sem_emo,0.938046509865671,1,1,1,1,1492242.93347526,10,A
42,2,11/1/94,22,f,87,The jar labeled Liz,Non-sensible,edin_semantics,sem_emo_sem_emo,0.843845414696261,1,2,2,1,1492244.5212151,61,A
42,2,11/1/94,22,f,88,Alex wrote the report,Sensible,edin_semantics,sem_emo_sem_emo,0.962149386992678,1,2,2,1,1492246.22658603,149,A
42,2,11/1/94,22,f,89,Dan brushed the hair,Sensible,edin_semantics,sem_emo_sem_emo,2.19671690021642,2,2,2,1,1492249.16691608,147,A
42,2,11/1/94,22,f,90,Jay squeezed the lemon,Sensible,edin_semantics,sem_emo_sem_emo,1.0440020551905,2,1,1,1,1492250.95459832,76,A
42,2,11/1/94,22,f,91,The story wrote Ewan,Non-sensible,edin_semantics,sem_emo_sem_emo,2.34964598738588,1,1,1,1,1492254.04777438,74,A
42,2,11/1/94,22,f,92,Phil cancelled the party,Sensible,edin_semantics,sem_emo_sem_emo,1.20935333543457,1,1,1,1,1492256.00017608,82,A
42,2,11/1/94,22,f,93,The dishes washed Mark,Non-sensible,edin_semantics,sem_emo_sem_emo,3.14972219080664,2,2,2,1,1492259.89310282,57,A
42,2,11/1/94,22,f,94,The box lifted Kate,Non-sensible,edin_semantics,sem_emo_sem_emo,2.67896367120557,2,2,2,1,1492263.31557957,69,A
42,2,11/1/94,22,f,95,Fred served the dessert,Sensible,edin_semantics,sem_emo_sem_emo,1.94909024098888,2,2,1,0,1492266.00888688,145,A
42,2,11/1/94,22,f,96,The picture painted Ryan,Non-sensible,edin_semantics,sem_emo_sem_emo,1.49034082447179,2,2,2,1,1492268.24355381,35,A
42,2,11/1/94,22,f,97,The shirt ironed Josh,Non-sensible,edin_semantics,sem_emo_sem_emo,0.98467655852437,1,2,2,1,1492269.97241569,55,A
42,2,11/1/94,22,f,98,The number dialed Tom,Non-sensible,edin_semantics,sem_emo_sem_emo,1.14945663348772,1,2,2,1,1492271.8659874,63,A
42,2,11/1/94,22,f,99,The lesson taught Eve,Non-sensible,edin_semantics,sem_emo_sem_emo,1.14967761049047,2,2,2,1,1492273.7595171,15,A
42,2,11/1/94,22,f,100,The coins polished Jon,Non-sensible,edin_semantics,sem_emo_sem_emo,0.878899655072019,2,2,2,1,1492275.38255652,29,A
42,2,11/1/94,22,f,101,Leo carried the wallet,Sensible,edin_semantics,sem_emo_sem_emo,0.902558333007619,1,1,1,1,1492277.02912987,150,A
42,2,11/1/94,22,f,102,Lucy wiped the desk,Sensible,edin_semantics,sem_emo_sem_emo,1.16104976064526,1,2,2,1,1492278.93445122,115,A
42,2,11/1/94,22,f,103,Anna polished the trophy,Sensible,edin_semantics,sem_emo_sem_emo,0.984519405057654,2,1,1,1,1492280.66334613,104,A
42,2,11/1/94,22,f,104,Sam sucked the candy,Sensible,edin_semantics,sem_emo_sem_emo,1.16142468433827,1,2,2,1,1492282.5685966,87,A
42,2,11/1/94,22,f,105,The spoon licked Will,Non-sensible,edin_semantics,sem_emo_sem_emo,0.914341968949884,1,2,2,1,1492284.22695422,21,A
42,2,11/1/94,22,f,106,The fruits mixed Jack,Non-sensible,edin_semantics,sem_emo_sem_emo,1.04329967452213,1,1,1,1,1492286.0146557,8,A
42,2,11/1/94,22,f,107,The toffee chewed Ben,Non-sensible,edin_semantics,sem_emo_sem_emo,1.51408224832267,2,2,2,1,1492288.27281197,31,A
42,2,11/1/94,22,f,108,The sofa sold Carl,Non-sensible,edin_semantics,sem_emo_sem_emo,1.87888458138332,2,1,1,1,1492290.89553389,38,A
42,2,11/1/94,22,f,109,Mike ate the steak,Sensible,edin_semantics,sem_emo_sem_emo,0.89050881867297,2,1,1,1,1492292.53033225,142,A
42,2,11/1/94,22,f,110,The thread measured Amy,Non-sensible,edin_semantics,sem_emo_sem_emo,0.937606800347567,2,2,2,1,1492294.21219461,51,A
42,2,11/1/94,22,f,111,Kate wore the dress,Sensible,edin_semantics,sem_emo_sem_emo,1.31425274419598,2,1,1,1,1492296.27045531,100,A
42,2,11/1/94,22,f,112,The wine stored Leo,Non-sensible,edin_semantics,sem_emo_sem_emo,2.13739108270966,2,1,1,1,1492299.15191785,52,A
42,2,11/1/94,22,f,113,The tomato sliced Liz,Non-sensible,edin_semantics,sem_emo_sem_emo,0.937567030778155,1,2,2,1,1492300.83372857,3,A
42,2,11/1/94,22,f,114,The potatoes mashed Will,Non-sensible,edin_semantics,sem_emo_sem_emo,0.902569237397984,1,1,1,1,1492302.48034265,28,A
42,2,11/1/94,22,f,115,The bill paid Mike,Non-sensible,edin_semantics,sem_emo_sem_emo,0.855235845781863,1,2,2,1,1492304.07982731,59,A
42,2,11/1/94,22,f,116,The parcel mailed Rob,Non-sensible,edin_semantics,sem_emo_sem_emo,0.890785280615091,2,1,1,1,1492305.71463883,14,A
42,2,11/1/94,22,f,117,The pen described John,Non-sensible,edin_semantics,sem_emo_sem_emo,0.843880373286083,2,1,1,1,1492307.30238187,42,A
42,2,11/1/94,22,f,118,The scarf knitted Tom,Non-sensible,edin_semantics,sem_emo_sem_emo,1.09101023501717,2,1,1,1,1492309.13715696,66,A
42,2,11/1/94,22,f,119,Alex dusted the house,Sensible,edin_semantics,sem_emo_sem_emo,1.38499048096128,2,1,1,1,1492311.26593089,122,A
42,2,11/1/94,22,f,120,Tim took the ticket,Sensible,edin_semantics,sem_emo_sem_emo,1.73773560207337,2,1,1,1,1492313.74750158,128,A
42,2,11/1/94,22,f,121,The card posted Erin,Non-sensible,edin_semantics,sem_emo_sem_emo,1.34962963056751,2,1,1,1,1492315.84102627,36,A
42,2,11/1/94,22,f,122,The towels passed Phil,Non-sensible,edin_semantics,sem_emo_sem_emo,1.20817821100354,1,2,2,1,1492317.79335708,43,A
42,2,11/1/94,22,f,123,The teeth brushed Carl,Non-sensible,edin_semantics,sem_emo_sem_emo,1.20827282383107,1,1,1,1,1492319.74570265,72,A
42,2,11/1/94,22,f,124,The cheese grated Andy,Non-sensible,edin_semantics,sem_emo_sem_emo,1.32596068968996,2,2,2,1,1492321.81568477,65,A
42,2,11/1/94,22,f,125,The lolly sucked Leah,Non-sensible,edin_semantics,sem_emo_sem_emo,1.31417480879463,2,1,1,1,1492323.87389543,12,A
42,2,11/1/94,22,f,126,Hugh dialed the hotline,Sensible,edin_semantics,sem_emo_sem_emo,0.984327292768285,2,1,1,1,1492325.6027711,138,A
42,2,11/1/94,22,f,127,Max searched the internet,Sensible,edin_semantics,sem_emo_sem_emo,1.12636531237513,1,2,2,1,1492327.47281659,85,A
42,2,11/1/94,22,f,128,Erin punched the monitor,Sensible,edin_semantics,sem_emo_sem_emo,0.950299682561308,2,2,2,1,1492329.16644238,125,A
42,2,11/1/94,22,f,129,The lorry dented Lily,Non-sensible,edin_semantics,sem_emo_sem_emo,1.47964924597181,2,2,2,1,1492331.38930002,71,A
42,2,11/1/94,22,f,130,The mirror kissed Max,Non-sensible,edin_semantics,sem_emo_sem_emo,1.58519619191065,2,2,2,1,1492333.71801475,23,A
42,2,11/1/94,22,f,131,Ian filed the report,Sensible,edin_semantics,sem_emo_sem_emo,1.12597274873406,1,2,2,1,1492335.58803714,99,A
42,2,11/1/94,22,f,132,The tree hugged Amy,Non-sensible,edin_semantics,sem_emo_sem_emo,0.890765075106174,1,2,2,1,1492337.22280665,11,A
42,2,11/1/94,22,f,133,The floor cleaned Tim,Non-sensible,edin_semantics,sem_emo_sem_emo,0.949848426738754,2,2,2,1,1492338.91645937,5,A
42,2,11/1/94,22,f,134,The bike kicked Matt,Non-sensible,edin_semantics,sem_emo_sem_emo,0.938180892029777,2,2,2,1,1492340.59826624,39,A
42,2,11/1/94,22,f,135,The trolley pushed Matt,Non-sensible,edin_semantics,sem_emo_sem_emo,1.00889585772529,2,1,1,1,1492342.35070309,26,A
42,2,11/1/94,22,f,136,Sara jumped the hedge,Sensible,edin_semantics,sem_emo_sem_emo,0.762186462525278,2,1,1,1,1492343.85615215,92,A
42,2,11/1/94,22,f,137,Bill trimmed the hair,Sensible,edin_semantics,sem_emo_sem_emo,0.903519215062261,1,2,2,1,1492345.50268989,107,A
42,2,11/1/94,22,f,138,Tim sniffed the perfume,Sensible,edin_semantics,sem_emo_sem_emo,1.13080987357534,1,2,2,1,1492347.37277387,93,A
42,2,11/1/94,22,f,139,Phil solved the problem,Sensible,edin_semantics,sem_emo_sem_emo,1.29148086183704,2,2,2,1,1492349.40740668,109,A
42,2,11/1/94,22,f,140,The bushes trimmed Jon,Non-sensible,edin_semantics,sem_emo_sem_emo,2.7614975522738,1,1,1,1,1492352.91226658,32,A
42,2,11/1/94,22,f,141,Jay painted the portrait,Sensible,edin_semantics,sem_emo_sem_emo,1.59673191001639,2,1,1,1,1492355.25271523,110,A
42,2,11/1/94,22,f,142,The laptop fixed Jen,Non-sensible,edin_semantics,sem_emo_sem_emo,0.772445066599175,1,2,2,1,1492356.76988475,37,A
42,2,11/1/94,22,f,143,The folder carried Dan,Non-sensible,edin_semantics,sem_emo_sem_emo,1.34964245930314,1,1,1,1,1492358.8634553,30,A
42,2,11/1/94,22,f,144,Tom offered the sweets,Sensible,edin_semantics,sem_emo_sem_emo,1.9137213723734,2,1,1,1,1492361.52138797,84,A
42,2,11/1/94,22,f,145,The money offered Matt,Non-sensible,edin_semantics,sem_emo_sem_emo,1.04376632464118,1,2,2,1,1492363.30912376,9,A
42,2,11/1/94,22,f,146,The garden watered Jeff,Non-sensible,edin_semantics,sem_emo_sem_emo,1.25448401016183,1,1,1,1,1492365.30853428,54,A
42,2,11/1/94,22,f,147,The house built Kate,Non-sensible,edin_semantics,sem_emo_sem_emo,1.43120230850764,2,1,2,0,1492367.48440651,46,A
42,2,11/1/94,22,f,148,The cake iced Mary,Non-sensible,edin_semantics,sem_emo_sem_emo,1.05536522506736,1,1,1,1,1492369.28382684,44,A
42,2,11/1/94,22,f,149,Luke watered the plants,Sensible,edin_semantics,sem_emo_sem_emo,1.12557184672914,1,2,2,1,1492371.15382743,129,A
42,2,11/1/94,22,f,150,Tom visited the hospital,Sensible,edin_semantics,sem_emo_sem_emo,1.39636231027544,1,2,2,1,1492373.29437409,91,A
42,2,11/1/94,22,f,151,The radio fixed Luke,Non-sensible,edin_semantics,sem_emo_sem_emo,2.58946884633042,1,2,2,1,1492378.89272821,112,B
42,2,11/1/94,22,f,152,Phil typed the letter,Sensible,edin_semantics,sem_emo_sem_emo,2.34601477626711,2,1,1,1,1492381.98585842,49,B
42,2,11/1/94,22,f,153,Amy hugged the tree,Sensible,edin_semantics,sem_emo_sem_emo,0.913942349608988,2,1,1,1,1492383.6442433,11,B
42,2,11/1/94,22,f,154,The problem solved Phil,Non-sensible,edin_semantics,sem_emo_sem_emo,1.58401080430485,1,1,1,1,1492385.97289773,109,B
42,2,11/1/94,22,f,155,The curtains measured Rob,Non-sensible,edin_semantics,sem_emo_sem_emo,1.25422839494422,2,2,2,1,1492387.97229414,126,B
42,2,11/1/94,22,f,156,The rules taught Josh,Non-sensible,edin_semantics,sem_emo_sem_emo,1.31372740189545,2,2,2,1,1492390.03052469,90,B
42,2,11/1/94,22,f,157,The kettle carried John,Non-sensible,edin_semantics,sem_emo_sem_emo,0.925160232698545,1,1,1,1,1492391.70058256,105,B
42,2,11/1/94,22,f,158,The plants watered Luke,Non-sensible,edin_semantics,sem_emo_sem_emo,1.85421530948952,2,1,1,1,1492394.29987864,129,B
42,2,11/1/94,22,f,159,The hedge jumped Sara,Non-sensible,edin_semantics,sem_emo_sem_emo,0.921792975394055,2,2,2,1,1492395.95818591,92,B
42,2,11/1/94,22,f,160,The monitor punched Erin,Non-sensible,edin_semantics,sem_emo_sem_emo,0.984450770542026,1,1,1,1,1492397.68702854,125,B
42,2,11/1/94,22,f,161,The wallet carried Leo,Non-sensible,edin_semantics,sem_emo_sem_emo,1.23115407209843,2,2,2,1,1492399.66290321,150,B
42,2,11/1/94,22,f,162,The portrait painted Jay,Non-sensible,edin_semantics,sem_emo_sem_emo,0.843330977018923,1,2,2,1,1492401.25067319,110,B
42,2,11/1/94,22,f,163,Matt pushed the trolley,Sensible,edin_semantics,sem_emo_sem_emo,0.843520523514599,1,2,2,1,1492402.83843452,26,B
42,2,11/1/94,22,f,164,The lemon squeezed Jay,Non-sensible,edin_semantics,sem_emo_sem_emo,0.961241103243083,2,2,2,1,1492404.54377306,76,B
42,2,11/1/94,22,f,165,Ian cancelled the plans,Sensible,edin_semantics,sem_emo_sem_emo,0.890616901684552,2,1,1,1,1492406.17859805,7,B
42,2,11/1/94,22,f,166,The sweets offered Tom,Non-sensible,edin_semantics,sem_emo_sem_emo,0.996769370278344,1,2,2,1,1492407.91926408,84,B
42,2,11/1/94,22,f,167,Liz sliced the tomato,Sensible,edin_semantics,sem_emo_sem_emo,1.51401361403987,2,1,1,1,1492410.17740047,3,B
42,2,11/1/94,22,f,168,The report wrote Alex,Non-sensible,edin_semantics,sem_emo_sem_emo,2.26598541112617,2,1,1,1,1492413.18823092,149,B
42,2,11/1/94,22,f,169,Leah sucked the lolly,Sensible,edin_semantics,sem_emo_sem_emo,1.08999001909979,1,2,2,1,1492415.02304097,12,B
42,2,11/1/94,22,f,170,Liz labeled the jar,Sensible,edin_semantics,sem_emo_sem_emo,1.05454962980002,2,1,1,1,1492416.82245232,61,B
42,2,11/1/94,22,f,171,The perfume sniffed Tim,Non-sensible,edin_semantics,sem_emo_sem_emo,1.14894989319146,2,1,1,1,1492418.71601633,93,B
42,2,11/1/94,22,f,172,Ryan entered the room,Sensible,edin_semantics,sem_emo_sem_emo,0.960482917260379,1,2,2,1,1492420.42139143,58,B
42,2,11/1/94,22,f,173,The blanket stroked Ryan,Non-sensible,edin_semantics,sem_emo_sem_emo,1.1485608574003,2,2,2,1,1492422.31495673,116,B
42,2,11/1/94,22,f,174,Josh squeezed the ball,Sensible,edin_semantics,sem_emo_sem_emo,2.68975627725013,1,1,1,1,1492425.74919306,1,B
42,2,11/1/94,22,f,175,Sam tidied the room,Sensible,edin_semantics,sem_emo_sem_emo,1.27815327164717,2,2,2,1,1492427.77213717,2,B
42,2,11/1/94,22,f,176,Kate served the dish,Sensible,edin_semantics,sem_emo_sem_emo,1.16045963275246,2,2,2,1,1492429.67746879,70,B
42,2,11/1/94,22,f,177,Mike paid the bill,Sensible,edin_semantics,sem_emo_sem_emo,1.00689712027088,1,1,1,1,1492431.42985367,59,B
42,2,11/1/94,22,f,178,The party cancelled Phil,Non-sensible,edin_semantics,sem_emo_sem_emo,1.67758617154323,2,2,2,1,1492433.85270888,82,B
42,2,11/1/94,22,f,179,The sugar weighed Liz,Non-sensible,edin_semantics,sem_emo_sem_emo,0.807588788680732,1,1,1,1,1492435.40512347,139,B
42,2,11/1/94,22,f,180,Ella watched the movie,Sensible,edin_semantics,sem_emo_sem_emo,1.30164100462571,1,1,1,1,1492437.45161977,33,B
42,2,11/1/94,22,f,181,The hotline dialed Hugh,Non-sensible,edin_semantics,sem_emo_sem_emo,1.20754831354134,1,2,2,1,1492439.40392685,138,B
42,2,11/1/94,22,f,182,Jen searched the room,Sensible,edin_semantics,sem_emo_sem_emo,1.37219047779217,1,2,2,1,1492441.5209768,10,B
42,2,11/1/94,22,f,183,Max lent the bucket,Sensible,edin_semantics,sem_emo_sem_emo,1.73638857109472,2,1,1,1,1492444.00255519,19,B
42,2,11/1/94,22,f,184,Lara filed the papers,Sensible,edin_semantics,sem_emo_sem_emo,1.07814865303226,1,2,2,1,1492445.82557133,24,B
42,2,11/1/94,22,f,185,Jon cut the paper,Sensible,edin_semantics,sem_emo_sem_emo,1.01938281604089,2,2,2,1,1492447.58969367,20,B
42,2,11/1/94,22,f,186,Mary iced the cake,Sensible,edin_semantics,sem_emo_sem_emo,0.960556683130562,1,2,2,1,1492449.29511785,44,B
42,2,11/1/94,22,f,187,Tom knitted the scarf,Sensible,edin_semantics,sem_emo_sem_emo,1.11336357519031,2,2,2,1,1492451.1533874,66,B
42,2,11/1/94,22,f,188,The carrots grated Tom,Non-sensible,edin_semantics,sem_emo_sem_emo,0.983490529935807,1,2,2,1,1492452.88229898,140,B
42,2,11/1/94,22,f,189,Leo stored the wine,Sensible,edin_semantics,sem_emo_sem_emo,0.854439173359424,1,2,2,1,1492454.48177916,52,B
42,2,11/1/94,22,f,190,Jon jumped the fence,Sensible,edin_semantics,sem_emo_sem_emo,0.936266183620319,2,1,1,1,1492456.16360559,17,B
42,2,11/1/94,22,f,191,The radio got Ben,Non-sensible,edin_semantics,sem_emo_sem_emo,0.807434842223302,2,2,2,1,1492457.71608785,88,B
42,2,11/1/94,22,f,192,The door kicked Max,Non-sensible,edin_semantics,sem_emo_sem_emo,0.948536674957722,1,2,2,1,1492459.40982877,114,B
42,2,11/1/94,22,f,193,Dan whisked the eggs,Sensible,edin_semantics,sem_emo_sem_emo,1.21921841404401,2,2,2,1,1492461.37382552,62,B
42,2,11/1/94,22,f,194,Joe wore the jumper,Sensible,edin_semantics,sem_emo_sem_emo,1.14853359642439,2,1,1,1,1492463.26736548,25,B
42,2,11/1/94,22,f,195,The report filed Ian,Non-sensible,edin_semantics,sem_emo_sem_emo,2.15987527766265,2,1,1,1,1492466.17239529,99,B
42,2,11/1/94,22,f,196,Kate lifted the box,Sensible,edin_semantics,sem_emo_sem_emo,0.983614648925141,2,1,1,1,1492467.90128699,69,B
42,2,11/1/94,22,f,197,Joe solved the puzzle,Sensible,edin_semantics,sem_emo_sem_emo,0.878112924983725,2,2,2,1,1492469.52429756,34,B
42,2,11/1/94,22,f,198,Max kissed the mirror,Sensible,edin_semantics,sem_emo_sem_emo,1.1248550338205,1,1,1,1,1492471.39436197,23,B
42,2,11/1/94,22,f,199,Eve taught the lesson,Sensible,edin_semantics,sem_emo_sem_emo,0.913485321216285,2,1,1,1,1492473.0526949,15,B
42,2,11/1/94,22,f,200,Erin crushed the garlic,Sensible,edin_semantics,sem_emo_sem_emo,0.807550302008167,1,2,2,1,1492474.60515855,6,B
42,2,11/1/94,22,f,201,Ryan carried the gun,Sensible,edin_semantics,sem_emo_sem_emo,0.889796495670453,2,1,1,1,1492476.23993864,75,B
42,2,11/1/94,22,f,202,Jack mixed the fruits,Sensible,edin_semantics,sem_emo_sem_emo,0.760650526266545,2,2,2,1,1492477.74538642,8,B
42,2,11/1/94,22,f,203,The onion sliced Liam,Non-sensible,edin_semantics,sem_emo_sem_emo,0.889986363006756,1,2,2,1,1492479.38016522,78,B
42,2,11/1/94,22,f,204,Dan carried the folder,Sensible,edin_semantics,sem_emo_sem_emo,1.23119833180681,1,2,2,1,1492481.35605465,30,B
42,2,11/1/94,22,f,205,Ewan wrote the story,Sensible,edin_semantics,sem_emo_sem_emo,1.23940239287913,1,2,2,1,1492483.33196556,74,B
42,2,11/1/94,22,f,206,The invite mailed Ian,Non-sensible,edin_semantics,sem_emo_sem_emo,0.784489128971472,2,1,1,1,1492484.86092705,89,B
42,2,11/1/94,22,f,207,Kate built the house,Sensible,edin_semantics,sem_emo_sem_emo,0.749156501842663,2,2,2,1,1492486.35455495,46,B
42,2,11/1/94,22,f,208,Carl brushed the teeth,Sensible,edin_semantics,sem_emo_sem_emo,1.26667143474333,1,2,2,1,1492488.36571286,72,B
42,2,11/1/94,22,f,209,Sean read the book,Sensible,edin_semantics,sem_emo_sem_emo,0.795928951120004,1,2,2,1,1492489.90644099,4,B
42,2,11/1/94,22,f,210,Josh ironed the shirt,Sensible,edin_semantics,sem_emo_sem_emo,0.878534673713148,1,1,1,1,1492491.52948106,55,B
42,2,11/1/94,22,f,211,Lily dented the lorry,Sensible,edin_semantics,sem_emo_sem_emo,0.937944199657068,1,1,1,1,1492493.21132193,71,B
42,2,11/1/94,22,f,212,Jon trimmed the bushes,Sensible,edin_semantics,sem_emo_sem_emo,1.03162380098365,2,2,2,1,1492494.9872635,32,B
42,2,11/1/94,22,f,213,The salt passed Leo,Non-sensible,edin_semantics,sem_emo_sem_emo,1.19657065114006,2,2,2,1,1492496.92785237,118,B
42,2,11/1/94,22,f,214,The turnip mashed Ella,Non-sensible,edin_semantics,sem_emo_sem_emo,0.855257975868881,1,1,1,1,1492498.52741818,103,B
42,2,11/1/94,22,f,215,The ribbon cut Lucy,Non-sensible,edin_semantics,sem_emo_sem_emo,0.843613212229684,2,1,1,1,1492500.11512819,95,B
42,2,11/1/94,22,f,216,The donut iced Joe,Non-sensible,edin_semantics,sem_emo_sem_emo,1.05529177980497,1,1,1,1,1492501.91460656,119,B
42,2,11/1/94,22,f,217,The pot scrubbed Josh,Non-sensible,edin_semantics,sem_emo_sem_emo,1.38456392125227,1,1,1,1,1492504.04337921,131,B
42,2,11/1/94,22,f,218,Tom dialed the number,Sensible,edin_semantics,sem_emo_sem_emo,0.890630692942068,1,1,1,1,1492505.67817213,63,B
42,2,11/1/94,22,f,219,Hugh pulled the lever,Sensible,edin_semantics,sem_emo_sem_emo,1.20750597841106,1,1,1,1,1492507.63054143,45,B
42,2,11/1/94,22,f,220,Ben chewed the toffee,Sensible,edin_semantics,sem_emo_sem_emo,0.808202329324558,1,1,1,1,1492509.1830394,31,B
42,2,11/1/94,22,f,221,Liz scrubbed the bowl,Sensible,edin_semantics,sem_emo_sem_emo,1.12555901799351,1,2,2,1,1492511.05303679,56,B
42,2,11/1/94,22,f,222,Andy grated the cheese,Sensible,edin_semantics,sem_emo_sem_emo,0.796069427160546,1,1,1,1,1492512.5937755,65,B
42,2,11/1/94,22,f,223,The church described Erin,Non-sensible,edin_semantics,sem_emo_sem_emo,1.47853217227384,2,1,1,1,1492514.81661454,117,B
42,2,11/1/94,22,f,224,The garage tidied Erin,Non-sensible,edin_semantics,sem_emo_sem_emo,0.902428440749645,1,1,1,1,1492516.46319526,77,B
42,2,11/1/94,22,f,225,The carrots chopped Fred,Non-sensible,edin_semantics,sem_emo_sem_emo,1.44369506044313,2,2,2,1,1492518.65075363,102,B
42,2,11/1/94,22,f,226,Carl sold the sofa,Sensible,edin_semantics,sem_emo_sem_emo,1.00835961103439,1,2,2,1,1492520.4031568,38,B
42,2,11/1/94,22,f,227,John described the pen,Sensible,edin_semantics,sem_emo_sem_emo,1.22008917341009,1,2,2,1,1492522.36729306,42,B
42,2,11/1/94,22,f,228,The ticket took Tim,Non-sensible,edin_semantics,sem_emo_sem_emo,1.3379723590333,2,2,2,1,1492524.44901198,128,B
42,2,11/1/94,22,f,229,The car lent Fred,Non-sensible,edin_semantics,sem_emo_sem_emo,1.07905533351004,2,2,2,1,1492526.27199221,94,B
42,2,11/1/94,22,f,230,The rose kissed Hugh,Non-sensible,edin_semantics,sem_emo_sem_emo,0.808480394771323,2,2,2,1,1492527.82449211,98,B
42,2,11/1/94,22,f,231,The gift posted Jack,Non-sensible,edin_semantics,sem_emo_sem_emo,1.00828392081894,2,1,1,1,1492529.57693055,111,B
42,2,11/1/94,22,f,232,Luke swallowed the pill,Sensible,edin_semantics,sem_emo_sem_emo,1.18461125949398,1,2,2,1,1492531.50575888,22,B
42,2,11/1/94,22,f,233,Mark washed the dishes,Sensible,edin_semantics,sem_emo_sem_emo,0.902880979003385,1,1,1,1,1492533.15229053,57,B
42,2,11/1/94,22,f,234,Will mashed the potatoes,Sensible,edin_semantics,sem_emo_sem_emo,1.13784650783055,1,2,2,1,1492535.03410523,28,B
42,2,11/1/94,22,f,235,The bed sold Jay,Non-sensible,edin_semantics,sem_emo_sem_emo,1.23216177988797,2,1,1,1,1492537.00994622,113,B
42,2,11/1/94,22,f,236,The hair trimmed Bill,Non-sensible,edin_semantics,sem_emo_sem_emo,1.30278533976525,2,1,1,1,1492539.05640436,107,B
42,2,11/1/94,22,f,237,The gum swallowed Owen,Non-sensible,edin_semantics,sem_emo_sem_emo,0.985067197820172,2,1,1,1,1492540.78533102,97,B
42,2,11/1/94,22,f,238,Will licked the spoon,Sensible,edin_semantics,sem_emo_sem_emo,1.1256128991954,1,1,1,1,1492542.65532424,21,B
42,2,11/1/94,22,f,239,Ryan painted the picture,Sensible,edin_semantics,sem_emo_sem_emo,1.11444825609215,2,1,1,1,1492544.51365569,35,B
42,2,11/1/94,22,f,240,The rice stored Fred,Non-sensible,edin_semantics,sem_emo_sem_emo,1.80799482227303,2,1,1,1,1492547.06576783,127,B
42,2,11/1/94,22,f,241,Tim pulled the handle,Sensible,edin_semantics,sem_emo_sem_emo,0.985050519928336,1,1,1,1,1492548.794673,73,B
42,2,11/1/94,22,f,242,The office entered Joe,Non-sensible,edin_semantics,sem_emo_sem_emo,1.52583381230943,2,1,1,1,1492551.06460265,133,B
42,2,11/1/94,22,f,243,The dessert served Fred,Non-sensible,edin_semantics,sem_emo_sem_emo,1.2083558908198,1,1,1,1,1492553.01694629,145,B
42,2,11/1/94,22,f,244,The opera watched Adam,Non-sensible,edin_semantics,sem_emo_sem_emo,1.19645134266466,2,2,1,0,1492554.95753677,108,B
42,2,11/1/94,22,f,245,The pillow hugged Kate,Non-sensible,edin_semantics,sem_emo_sem_emo,0.902553201420233,1,2,2,1,1492556.60409119,86,B
42,2,11/1/94,22,f,246,Phil chopped the herbs,Sensible,edin_semantics,sem_emo_sem_emo,1.50250900583342,2,1,1,1,1492558.85046768,27,B
42,2,11/1/94,22,f,247,Luke climbed the hill,Sensible,edin_semantics,sem_emo_sem_emo,1.07843601983041,2,2,2,1,1492560.67346522,68,B
42,2,11/1/94,22,f,248,The shed built Rose,Non-sensible,edin_semantics,sem_emo_sem_emo,1.4314332283102,2,1,1,1,1492562.84929544,121,B
42,2,11/1/94,22,f,249,Rob stroked the fur,Sensible,edin_semantics,sem_emo_sem_emo,0.937134377425537,2,1,1,1,1492564.53110519,41,B
42,2,11/1/94,22,f,250,The bowl dented Ian,Non-sensible,edin_semantics,sem_emo_sem_emo,1.34905393514782,2,2,2,1,1492566.62461064,146,B
42,2,11/1/94,22,f,251,Matt kicked the bike,Sensible,edin_semantics,sem_emo_sem_emo,1.11362400138751,1,1,1,1,1492568.48288052,39,B
42,2,11/1/94,22,f,252,Jane punched the wall,Sensible,edin_semantics,sem_emo_sem_emo,1.18426680448465,2,2,2,1,1492570.41173258,50,B
42,2,11/1/94,22,f,253,The dress wore Kate,Non-sensible,edin_semantics,sem_emo_sem_emo,0.878582782112062,1,2,2,1,1492572.03476431,100,B
42,2,11/1/94,22,f,254,The message typed Eve,Non-sensible,edin_semantics,sem_emo_sem_emo,1.50152342813089,1,2,2,1,1492574.28113502,124,B
42,2,11/1/94,22,f,255,The hair brushed Dan,Non-sensible,edin_semantics,sem_emo_sem_emo,2.03060679254122,1,1,1,1,1492577.05678987,147,B
42,2,11/1/94,22,f,256,The poster read Luke,Non-sensible,edin_semantics,sem_emo_sem_emo,1.9134971878957,1,1,1,1,1492579.71485018,79,B
42,2,11/1/94,22,f,257,Matt drank the juice,Sensible,edin_semantics,sem_emo_sem_emo,1.40731784282252,1,2,2,1,1492581.86713173,60,B
42,2,11/1/94,22,f,258,Tim ate the ham,Sensible,edin_semantics,sem_emo_sem_emo,1.0664753455203,2,1,1,1,1492583.67833474,67,B
42,2,11/1/94,22,f,259,Phil sniffed the milk,Sensible,edin_semantics,sem_emo_sem_emo,0.854099528864026,2,2,2,1,1492585.27783544,18,B
42,2,11/1/94,22,f,260,The rope pulled Andy,Non-sensible,edin_semantics,sem_emo_sem_emo,0.995593283791095,1,2,2,1,1492587.01848672,148,B
42,2,11/1/94,22,f,261,The ice crushed Josh,Non-sensible,edin_semantics,sem_emo_sem_emo,1.03124727401882,2,1,1,1,1492588.79445235,81,B
42,2,11/1/94,22,f,262,The socks knitted Ryan,Non-sensible,edin_semantics,sem_emo_sem_emo,1.60751232854091,2,1,1,1,1492591.14667181,141,B
42,2,11/1/94,22,f,263,Jen weighed the flour,Sensible,edin_semantics,sem_emo_sem_emo,1.23145683342591,2,2,2,1,1492593.12254776,64,B
42,2,11/1/94,22,f,264,The rope pulled Emma,Non-sensible,edin_semantics,sem_emo_sem_emo,2.30036421166733,2,2,2,1,1492596.16870282,120,B
42,2,11/1/94,22,f,265,Bill counted the sheets,Sensible,edin_semantics,sem_emo_sem_emo,0.925203209277242,2,2,2,1,1492597.83881233,48,B
42,2,11/1/94,22,f,266,Mary visited the museum,Sensible,edin_semantics,sem_emo_sem_emo,0.678851418429986,2,2,2,1,1492599.26192604,16,B
42,2,11/1/94,22,f,267,The steak ate Mike,Non-sensible,edin_semantics,sem_emo_sem_emo,1.07873749826103,1,2,2,1,1492601.08485975,142,B
42,2,11/1/94,22,f,268,The trousers ironed Eve,Non-sensible,edin_semantics,sem_emo_sem_emo,1.11418301914819,2,2,2,1,1492602.9431524,130,B
42,2,11/1/94,22,f,269,Lily got the kettle,Sensible,edin_semantics,sem_emo_sem_emo,1.56096855388023,2,1,1,1,1492605.24833032,13,B
42,2,11/1/94,22,f,270,The button pushed Ian,Non-sensible,edin_semantics,sem_emo_sem_emo,1.3496321963612,2,1,1,1,1492607.34184507,101,B
42,2,11/1/94,22,f,271,The desk wiped Lucy,Non-sensible,edin_semantics,sem_emo_sem_emo,1.16140704462305,2,1,1,1,1492609.24713499,115,B
42,2,11/1/94,22,f,272,The internet searched Max,Non-sensible,edin_semantics,sem_emo_sem_emo,0.98468329384923,1,1,1,1,1492610.97604498,85,B
42,2,11/1/94,22,f,273,Amy measured the thread,Sensible,edin_semantics,sem_emo_sem_emo,0.938160045072436,2,1,1,1,1492612.65786531,51,B
42,2,11/1/94,22,f,274,Rob mailed the parcel,Sensible,edin_semantics,sem_emo_sem_emo,0.973412812454626,1,2,2,1,1492614.37500449,14,B
42,2,11/1/94,22,f,275,Phil passed the towels,Sensible,edin_semantics,sem_emo_sem_emo,1.32590616703965,1,1,1,1,1492616.44499976,43,B
42,2,11/1/94,22,f,276,The house dusted Alex,Non-sensible,edin_semantics,sem_emo_sem_emo,0.984288806095719,2,2,2,1,1492618.17387478,122,B
42,2,11/1/94,22,f,277,Jake dusted the shelf,Sensible,edin_semantics,sem_emo_sem_emo,1.34932494512759,2,1,1,1,1492620.26737542,47,B
42,2,11/1/94,22,f,278,The pan washed Beth,Non-sensible,edin_semantics,sem_emo_sem_emo,0.936680235434324,1,2,2,1,1492621.94921115,132,B
42,2,11/1/94,22,f,279,The candy sucked Sam,Non-sensible,edin_semantics,sem_emo_sem_emo,0.889732992742211,1,1,1,1,1492623.58399573,87,B
42,2,11/1/94,22,f,280,Jeff watered the garden,Sensible,edin_semantics,sem_emo_sem_emo,1.18387392046861,2,2,2,1,1492625.51289526,54,B
42,2,11/1/94,22,f,281,The beer drank Jack,Non-sensible,edin_semantics,sem_emo_sem_emo,1.25429029413499,1,1,1,1,1492627.51223874,135,B
42,2,11/1/94,22,f,282,Beth took the photo,Sensible,edin_semantics,sem_emo_sem_emo,1.14906759792939,2,1,1,1,1492629.40578062,53,B
42,2,11/1/94,22,f,283,The debt paid Zoe,Non-sensible,edin_semantics,sem_emo_sem_emo,1.03173348796554,1,2,2,1,1492631.1817299,134,B
42,2,11/1/94,22,f,284,Beth wiped the table,Sensible,edin_semantics,sem_emo_sem_emo,1.04332437017001,1,2,2,1,1492632.96942817,40,B
42,2,11/1/94,22,f,285,The stairs climbed Ben,Non-sensible,edin_semantics,sem_emo_sem_emo,0.902329658390954,2,1,1,1,1492634.61602236,143,B
42,2,11/1/94,22,f,286,The box labeled Ian,Non-sensible,edin_semantics,sem_emo_sem_emo,1.03194323997013,2,2,2,1,1492636.39195399,136,B
42,2,11/1/94,22,f,287,The nuts mixed Liam,Non-sensible,edin_semantics,sem_emo_sem_emo,1.10253568994813,2,1,1,1,1492638.23842836,83,B
42,2,11/1/94,22,f,288,Jen fixed the laptop,Sensible,edin_semantics,sem_emo_sem_emo,1.39614101219922,2,1,1,1,1492640.37900646,37,B
42,2,11/1/94,22,f,289,The bath cleaned Jack,Non-sensible,edin_semantics,sem_emo_sem_emo,1.06677265441976,2,2,2,1,1492642.19019182,80,B
42,2,11/1/94,22,f,290,Erin posted the card,Sensible,edin_semantics,sem_emo_sem_emo,1.11394825088792,1,2,2,1,1492644.04848799,36,B
42,2,11/1/94,22,f,291,The cream whisked Tom,Non-sensible,edin_semantics,sem_emo_sem_emo,1.23146966216154,2,1,1,1,1492646.02437742,137,B
42,2,11/1/94,22,f,292,The hospital visited Tom,Non-sensible,edin_semantics,sem_emo_sem_emo,0.984377966728061,1,1,1,1,1492647.75323384,91,B
42,2,11/1/94,22,f,293,Jon polished the coins,Sensible,edin_semantics,sem_emo_sem_emo,1.01920545683242,2,1,1,1,1492649.51742353,29,B
42,2,11/1/94,22,f,294,Tim cleaned the floor,Sensible,edin_semantics,sem_emo_sem_emo,0.960963037330657,1,1,1,1,1492651.22279606,5,B
42,2,11/1/94,22,f,295,The shoes counted Lucy,Non-sensible,edin_semantics,sem_emo_sem_emo,1.0195765318349,1,1,1,1,1492652.9869508,123,B
42,2,11/1/94,22,f,296,The plate licked Jane,Non-sensible,edin_semantics,sem_emo_sem_emo,1.84294611099176,2,2,2,1,1492655.57441545,96,B
42,2,11/1/94,22,f,297,The crate lifted Amy,Non-sensible,edin_semantics,sem_emo_sem_emo,1.45493667689152,2,2,2,1,1492657.77377253,144,B
42,2,11/1/94,22,f,298,The trophy polished Anna,Non-sensible,edin_semantics,sem_emo_sem_emo,1.93660614872351,2,2,2,1,1492660.45534335,104,B
42,2,11/1/94,22,f,299,The fat chewed Adam,Non-sensible,edin_semantics,sem_emo_sem_emo,1.78413857985288,2,2,2,1,1492662.98398572,106,B
42,2,11/1/94,22,f,300,Matt offered the money,Sensible,edin_semantics,sem_emo_sem_emo,4.10123388073407,2,1,1,1,1492667.82958549,9,B
