subject_column,AssignedList_column,subject_dob_column,subject_age_column,subject_gender_column,trialnum_column,Stim_column,Type_column,Experiment_column,OrderGroup_column,ReactionTime_column,StimSide_column,StimPosition_column,Response_column,Valid_column,TrialEndSecs_column,PairID_column,List_column
43,3,22/6/95,20,F,1,The crate lifted Amy,Non-sensible,edin_semantics,emo_sem_emo_sem,0.802646146388724,2,1,1,1,1551807.51213803,144,B
43,3,22/6/95,20,F,2,The box labeled Ian,Non-sensible,edin_semantics,emo_sem_emo_sem,0.537843557074666,2,1,1,1,1551808.79409603,136,B
43,3,22/6/95,20,F,3,Leah sucked the lolly,Sensible,edin_semantics,emo_sem_emo_sem,0.644390513189137,2,1,1,1,1551810.18196049,12,B
43,3,22/6/95,20,F,4,The shoes counted Lucy,Non-sensible,edin_semantics,emo_sem_emo_sem,0.832717975368723,2,2,2,1,1551811.75791605,123,B
43,3,22/6/95,20,F,5,Matt offered the money,Sensible,edin_semantics,emo_sem_emo_sem,0.785967014497146,1,2,2,1,1551813.286866,9,B
43,3,22/6/95,20,F,6,The problem solved Phil,Non-sensible,edin_semantics,emo_sem_emo_sem,0.880383955314755,2,2,2,1,1551814.90993205,109,B
43,3,22/6/95,20,F,7,The ribbon cut Lucy,Non-sensible,edin_semantics,emo_sem_emo_sem,0.656372675905004,1,2,2,1,1551816.30948522,95,B
43,3,22/6/95,20,F,8,Jen weighed the flour,Sensible,edin_semantics,emo_sem_emo_sem,1.31510041141883,1,1,1,1,1551818.36771064,64,B
43,3,22/6/95,20,F,9,The carrots chopped Fred,Non-sensible,edin_semantics,emo_sem_emo_sem,0.82086281850934,1,1,1,1,1551819.9319528,102,B
43,3,22/6/95,20,F,10,The internet searched Max,Non-sensible,edin_semantics,emo_sem_emo_sem,0.726628688862547,1,2,2,1,1551821.40209489,85,B
43,3,22/6/95,20,F,11,Jen fixed the laptop,Sensible,edin_semantics,emo_sem_emo_sem,0.868127575377002,1,2,2,1,1551823.01338949,37,B
43,3,22/6/95,20,F,12,The hair trimmed Bill,Non-sensible,edin_semantics,emo_sem_emo_sem,1.0094914380461,1,2,2,1,1551824.7657686,107,B
43,3,22/6/95,20,F,13,The salt passed Leo,Non-sensible,edin_semantics,emo_sem_emo_sem,1.60921215359122,2,1,1,1,1551827.11804547,118,B
43,3,22/6/95,20,F,14,The report wrote Alex,Non-sensible,edin_semantics,emo_sem_emo_sem,1.0088673136197,1,2,2,1,1551828.87045088,149,B
43,3,22/6/95,20,F,15,John described the pen,Sensible,edin_semantics,emo_sem_emo_sem,0.785886513069272,1,1,1,1,1551830.39937549,42,B
43,3,22/6/95,20,F,16,Jeff watered the garden,Sensible,edin_semantics,emo_sem_emo_sem,0.868167665554211,2,1,1,1,1551832.0106672,54,B
43,3,22/6/95,20,F,17,The shed built Rose,Non-sensible,edin_semantics,emo_sem_emo_sem,0.903423640178517,2,2,2,1,1551833.65723798,121,B
43,3,22/6/95,20,F,18,Bill counted the sheets,Sensible,edin_semantics,emo_sem_emo_sem,0.985855531413108,1,1,1,1,1551835.38610499,48,B
43,3,22/6/95,20,F,19,The gum swallowed Owen,Non-sensible,edin_semantics,emo_sem_emo_sem,0.985653476789594,1,2,2,1,1551837.11499477,97,B
43,3,22/6/95,20,F,20,Carl sold the sofa,Sensible,edin_semantics,emo_sem_emo_sem,0.785918264649808,1,1,1,1,1551838.64396876,38,B
43,3,22/6/95,20,F,21,Hugh pulled the lever,Sensible,edin_semantics,emo_sem_emo_sem,0.915239348076284,1,2,2,1,1551840.30260092,45,B
43,3,22/6/95,20,F,22,Mike paid the bill,Sensible,edin_semantics,emo_sem_emo_sem,1.15073791658506,1,2,2,1,1551842.19588816,59,B
43,3,22/6/95,20,F,23,The rope pulled Emma,Non-sensible,edin_semantics,emo_sem_emo_sem,0.879809542559087,1,1,1,1,1551843.81885221,120,B
43,3,22/6/95,20,F,24,The church described Erin,Non-sensible,edin_semantics,emo_sem_emo_sem,0.914906439138576,2,2,2,1,1551845.47720342,117,B
43,3,22/6/95,20,F,25,Jon jumped the fence,Sensible,edin_semantics,emo_sem_emo_sem,1.00904371053912,2,2,2,1,1551847.22959087,17,B
43,3,22/6/95,20,F,26,Jane punched the wall,Sensible,edin_semantics,emo_sem_emo_sem,1.00913607841358,1,1,1,1,1551848.98202579,50,B
43,3,22/6/95,20,F,27,Mary iced the cake,Sensible,edin_semantics,emo_sem_emo_sem,0.90360580990091,2,1,1,1,1551850.62860844,44,B
43,3,22/6/95,20,F,28,Phil sniffed the milk,Sensible,edin_semantics,emo_sem_emo_sem,0.797745518852025,1,1,1,1,1551852.16932919,18,B
43,3,22/6/95,20,F,29,The poster read Luke,Non-sensible,edin_semantics,emo_sem_emo_sem,0.762104999274015,1,2,2,1,1551853.6747186,79,B
43,3,22/6/95,20,F,30,The rice stored Fred,Non-sensible,edin_semantics,emo_sem_emo_sem,1.12648045131937,2,2,2,1,1551855.54474228,127,B
43,3,22/6/95,20,F,31,Tim pulled the handle,Sensible,edin_semantics,emo_sem_emo_sem,1.51505435584113,2,2,2,1,1551857.80293768,73,B
43,3,22/6/95,20,F,32,The candy sucked Sam,Non-sensible,edin_semantics,emo_sem_emo_sem,1.06828517816029,2,2,2,1,1551859.61411727,87,B
43,3,22/6/95,20,F,33,The hospital visited Tom,Non-sensible,edin_semantics,emo_sem_emo_sem,1.55018685245886,1,2,2,1,1551861.90760778,91,B
43,3,22/6/95,20,F,34,Jon polished the coins,Sensible,edin_semantics,emo_sem_emo_sem,2.22016005287878,2,2,2,1,1551864.87136686,29,B
43,3,22/6/95,20,F,35,The beer drank Jack,Non-sensible,edin_semantics,emo_sem_emo_sem,1.33868275745772,1,2,2,1,1551866.95309092,135,B
43,3,22/6/95,20,F,36,Kate served the dish,Sensible,edin_semantics,emo_sem_emo_sem,0.856329186121002,2,1,1,1,1551868.55259162,70,B
43,3,22/6/95,20,F,37,Beth took the photo,Sensible,edin_semantics,emo_sem_emo_sem,1.1268864851445,2,2,2,1,1551870.42261146,53,B
43,3,22/6/95,20,F,38,The pan washed Beth,Non-sensible,edin_semantics,emo_sem_emo_sem,1.19701805780642,1,1,1,1,1551872.36324298,132,B
43,3,22/6/95,20,F,39,Luke climbed the hill,Sensible,edin_semantics,emo_sem_emo_sem,1.04417171701789,1,1,1,1,1551874.15095825,68,B
43,3,22/6/95,20,F,40,The portrait painted Jay,Non-sensible,edin_semantics,emo_sem_emo_sem,0.997538460884243,1,1,1,1,1551875.8916121,110,B
43,3,22/6/95,20,F,41,Joe wore the jumper,Sensible,edin_semantics,emo_sem_emo_sem,2.25491249421611,2,2,2,1,1551878.89068874,25,B
43,3,22/6/95,20,F,42,Matt drank the juice,Sensible,edin_semantics,emo_sem_emo_sem,0.937640796881169,2,1,1,1,1551880.57250171,60,B
43,3,22/6/95,20,F,43,The invite mailed Ian,Non-sensible,edin_semantics,emo_sem_emo_sem,1.13791642501019,2,2,2,1,1551882.45430935,89,B
43,3,22/6/95,20,F,44,Ella watched the movie,Sensible,edin_semantics,emo_sem_emo_sem,1.14886458101682,2,2,2,1,1551884.34784064,33,B
43,3,22/6/95,20,F,45,The rules taught Josh,Non-sensible,edin_semantics,emo_sem_emo_sem,1.09089445439167,1,1,1,1,1551886.18261701,90,B
43,3,22/6/95,20,F,46,Luke swallowed the pill,Sensible,edin_semantics,emo_sem_emo_sem,1.38529228023253,1,1,1,1,1551888.31159107,22,B
43,3,22/6/95,20,F,47,The curtains measured Rob,Non-sensible,edin_semantics,emo_sem_emo_sem,0.749898651847616,2,1,1,1,1551889.80502077,126,B
43,3,22/6/95,20,F,48,Lara filed the papers,Sensible,edin_semantics,emo_sem_emo_sem,0.85603187722154,1,1,1,1,1551891.40453109,24,B
43,3,22/6/95,20,F,49,The message typed Eve,Non-sensible,edin_semantics,emo_sem_emo_sem,0.997227360960096,1,1,1,1,1551893.14518398,124,B
43,3,22/6/95,20,F,50,The ticket took Tim,Non-sensible,edin_semantics,emo_sem_emo_sem,0.808743386762217,1,1,1,1,1551894.69765822,128,B
43,3,22/6/95,20,F,51,Ben chewed the toffee,Sensible,edin_semantics,emo_sem_emo_sem,0.84417351288721,1,2,1,0,1551896.28542981,31,B
43,3,22/6/95,20,F,52,The cream whisked Tom,Non-sensible,edin_semantics,emo_sem_emo_sem,1.44417101144791,2,2,2,1,1551898.4730148,137,B
43,3,22/6/95,20,F,53,The plate licked Jane,Non-sensible,edin_semantics,emo_sem_emo_sem,0.820958393393084,1,1,1,1,1551900.03723643,96,B
43,3,22/6/95,20,F,54,The fat chewed Adam,Non-sensible,edin_semantics,emo_sem_emo_sem,1.00922299409285,2,1,1,1,1551901.78965852,106,B
43,3,22/6/95,20,F,55,Liz sliced the tomato,Sensible,edin_semantics,emo_sem_emo_sem,1.18588163843378,1,2,2,1,1551903.71849519,3,B
43,3,22/6/95,20,F,56,The bowl dented Ian,Non-sensible,edin_semantics,emo_sem_emo_sem,1.82068128976971,2,1,1,1,1551906.28241823,146,B
43,3,22/6/95,20,F,57,The pot scrubbed Josh,Non-sensible,edin_semantics,emo_sem_emo_sem,0.85628941655159,1,2,2,1,1551907.8819494,131,B
43,3,22/6/95,20,F,58,Erin crushed the garlic,Sensible,edin_semantics,emo_sem_emo_sem,0.961851436411962,1,1,1,1,1551909.58732065,6,B
43,3,22/6/95,20,F,59,Liz labeled the jar,Sensible,edin_semantics,emo_sem_emo_sem,1.05633829464205,1,2,2,1,1551911.38681346,61,B
43,3,22/6/95,20,F,60,Jake dusted the shelf,Sensible,edin_semantics,emo_sem_emo_sem,1.31475403206423,1,2,2,1,1551913.44495582,47,B
43,3,22/6/95,20,F,61,Ian cancelled the plans,Sensible,edin_semantics,emo_sem_emo_sem,1.32659860514104,1,2,2,1,1551915.51492382,7,B
43,3,22/6/95,20,F,62,Lily dented the lorry,Sensible,edin_semantics,emo_sem_emo_sem,1.87947823712602,2,2,2,1,1551918.13768615,71,B
43,3,22/6/95,20,F,63,Jack mixed the fruits,Sensible,edin_semantics,emo_sem_emo_sem,0.761960674310103,2,1,1,1,1551919.64310346,8,B
43,3,22/6/95,20,F,64,Jon trimmed the bushes,Sensible,edin_semantics,emo_sem_emo_sem,1.39731549518183,1,1,1,1,1551921.78362543,32,B
43,3,22/6/95,20,F,65,Liz scrubbed the bowl,Sensible,edin_semantics,emo_sem_emo_sem,0.938725798390806,2,1,1,1,1551923.46549644,56,B
43,3,22/6/95,20,F,66,Phil typed the letter,Sensible,edin_semantics,emo_sem_emo_sem,2.59723929176107,1,2,2,1,1551926.80566638,49,B
43,3,22/6/95,20,F,67,Tom dialed the number,Sensible,edin_semantics,emo_sem_emo_sem,0.891234291018918,1,2,2,1,1551928.44047437,63,B
43,3,22/6/95,20,F,68,The desk wiped Lucy,Non-sensible,edin_semantics,emo_sem_emo_sem,1.03258853196166,1,2,2,1,1551930.21639735,115,B
43,3,22/6/95,20,F,69,The pillow hugged Kate,Non-sensible,edin_semantics,emo_sem_emo_sem,0.855776262003928,2,1,1,1,1551931.81590574,86,B
43,3,22/6/95,20,F,70,The rope pulled Andy,Non-sensible,edin_semantics,emo_sem_emo_sem,1.37355771451257,2,1,1,1,1551933.93293549,148,B
43,3,22/6/95,20,F,71,The bed sold Jay,Non-sensible,edin_semantics,emo_sem_emo_sem,2.40883197006769,2,2,2,1,1551937.08490273,113,B
43,3,22/6/95,20,F,72,The debt paid Zoe,Non-sensible,edin_semantics,emo_sem_emo_sem,0.950137397274375,1,1,1,1,1551938.77851761,134,B
43,3,22/6/95,20,F,73,The house dusted Alex,Non-sensible,edin_semantics,emo_sem_emo_sem,1.13829263160005,2,1,1,1,1551940.6603121,122,B
43,3,22/6/95,20,F,74,Rob mailed the parcel,Sensible,edin_semantics,emo_sem_emo_sem,1.03271682048216,2,1,1,1,1551942.4363701,14,B
43,3,22/6/95,20,F,75,Rob stroked the fur,Sensible,edin_semantics,emo_sem_emo_sem,1.37346246000379,2,2,2,1,1551944.55327284,41,B
43,3,22/6/95,20,F,76,Sam tidied the room,Sensible,edin_semantics,emo_sem_emo_sem,1.06780056748539,2,1,1,1,1551946.3644582,2,B
43,3,22/6/95,20,F,77,The onion sliced Liam,Non-sensible,edin_semantics,emo_sem_emo_sem,1.79723749565892,2,1,1,1,1551948.905059,78,B
43,3,22/6/95,20,F,78,The door kicked Max,Non-sensible,edin_semantics,emo_sem_emo_sem,1.11470804060809,1,1,1,1,1551950.76314285,114,B
43,3,22/6/95,20,F,79,Matt pushed the trolley,Sensible,edin_semantics,emo_sem_emo_sem,1.07976027973928,2,1,1,1,1551952.58613976,26,B
43,3,22/6/95,20,F,80,The nuts mixed Liam,Non-sensible,edin_semantics,emo_sem_emo_sem,1.6331841761712,1,2,2,1,1551954.96232065,83,B
43,3,22/6/95,20,F,81,The opera watched Adam,Non-sensible,edin_semantics,emo_sem_emo_sem,1.03209654497914,1,1,1,1,1551956.73781322,108,B
43,3,22/6/95,20,F,82,Amy hugged the tree,Sensible,edin_semantics,emo_sem_emo_sem,1.13828236865811,2,2,2,1,1551958.61959199,11,B
43,3,22/6/95,20,F,83,The monitor punched Erin,Non-sensible,edin_semantics,emo_sem_emo_sem,1.95007293205708,1,2,2,1,1551961.31295061,125,B
43,3,22/6/95,20,F,84,Josh squeezed the ball,Sensible,edin_semantics,emo_sem_emo_sem,1.24411988840438,1,2,1,0,1551963.30058743,1,B
43,3,22/6/95,20,F,85,Erin posted the card,Sensible,edin_semantics,emo_sem_emo_sem,1.87963891867548,1,1,1,1,1551965.92329716,36,B
43,3,22/6/95,20,F,86,The stairs climbed Ben,Non-sensible,edin_semantics,emo_sem_emo_sem,0.938221623888239,1,2,2,1,1551967.60513033,143,B
43,3,22/6/95,20,F,87,The donut iced Joe,Non-sensible,edin_semantics,emo_sem_emo_sem,0.950434064725414,2,2,2,1,1551969.29874328,119,B
43,3,22/6/95,20,F,88,Mark washed the dishes,Sensible,edin_semantics,emo_sem_emo_sem,1.30298739438877,1,2,2,1,1551971.34522869,57,B
43,3,22/6/95,20,F,89,Lily got the kettle,Sensible,edin_semantics,emo_sem_emo_sem,1.73777088150382,1,2,2,1,1551973.82677853,13,B
43,3,22/6/95,20,F,90,The rose kissed Hugh,Non-sensible,edin_semantics,emo_sem_emo_sem,0.902908240212128,2,1,1,1,1551975.47336182,98,B
43,3,22/6/95,20,F,91,The plants watered Luke,Non-sensible,edin_semantics,emo_sem_emo_sem,0.879161043325439,1,2,2,1,1551977.09640285,129,B
43,3,22/6/95,20,F,92,Leo stored the wine,Sensible,edin_semantics,emo_sem_emo_sem,1.18544224975631,1,1,1,1,1551979.02521739,52,B
43,3,22/6/95,20,F,93,Andy grated the cheese,Sensible,edin_semantics,emo_sem_emo_sem,1.05594124132767,1,2,2,1,1551980.82469512,65,B
43,3,22/6/95,20,F,94,Jon cut the paper,Sensible,edin_semantics,emo_sem_emo_sem,1.29159920825623,1,1,1,1,1551982.85938182,20,B
43,3,22/6/95,20,F,95,The trophy polished Anna,Non-sensible,edin_semantics,emo_sem_emo_sem,1.3733338508755,2,1,1,1,1551984.97639296,104,B
43,3,22/6/95,20,F,96,The kettle carried John,Non-sensible,edin_semantics,emo_sem_emo_sem,1.95026632747613,1,2,2,1,1551987.66968166,105,B
43,3,22/6/95,20,F,97,Will mashed the potatoes,Sensible,edin_semantics,emo_sem_emo_sem,1.12634093733504,2,1,1,1,1551989.53970695,28,B
43,3,22/6/95,20,F,98,Jen searched the room,Sensible,edin_semantics,emo_sem_emo_sem,1.02059129532427,1,1,1,1,1551991.30391204,10,B
43,3,22/6/95,20,F,99,The sweets offered Tom,Non-sensible,edin_semantics,emo_sem_emo_sem,1.57400621194392,2,1,1,1,1551993.6208505,84,B
43,3,22/6/95,20,F,100,Phil passed the towels,Sensible,edin_semantics,emo_sem_emo_sem,1.22060168674216,1,2,2,1,1551995.58497265,43,B
43,3,22/6/95,20,F,101,The report filed Ian,Non-sensible,edin_semantics,emo_sem_emo_sem,0.832729842048138,2,2,2,1,1551997.16100903,99,B
43,3,22/6/95,20,F,102,The lemon squeezed Jay,Non-sensible,edin_semantics,emo_sem_emo_sem,0.879544305847958,1,1,1,1,1551998.78403659,76,B
43,3,22/6/95,20,F,103,Eve taught the lesson,Sensible,edin_semantics,emo_sem_emo_sem,1.02091233781539,2,2,2,1,1552000.54815187,15,B
43,3,22/6/95,20,F,104,The perfume sniffed Tim,Non-sensible,edin_semantics,emo_sem_emo_sem,1.20915673300624,1,2,2,1,1552002.50054202,93,B
43,3,22/6/95,20,F,105,The garage tidied Erin,Non-sensible,edin_semantics,emo_sem_emo_sem,1.11470258818008,1,2,2,1,1552004.35879489,77,B
43,3,22/6/95,20,F,106,The radio fixed Luke,Non-sensible,edin_semantics,emo_sem_emo_sem,1.60869033937342,2,1,1,1,1552006.7110275,112,B
43,3,22/6/95,20,F,107,The steak ate Mike,Non-sensible,edin_semantics,emo_sem_emo_sem,1.57312069903128,1,1,1,1,1552009.02797238,142,B
43,3,22/6/95,20,F,108,The ice crushed Josh,Non-sensible,edin_semantics,emo_sem_emo_sem,1.16133905155584,1,2,2,1,1552010.93326262,81,B
43,3,22/6/95,20,F,109,Will licked the spoon,Sensible,edin_semantics,emo_sem_emo_sem,1.26650786679238,2,2,2,1,1552012.94442855,21,B
43,3,22/6/95,20,F,110,Joe solved the puzzle,Sensible,edin_semantics,emo_sem_emo_sem,1.11383599811234,2,1,1,1,1552014.80271831,34,B
43,3,22/6/95,20,F,111,The dessert served Fred,Non-sensible,edin_semantics,emo_sem_emo_sem,1.23112007556483,2,2,2,1,1552016.77855546,145,B
43,3,22/6/95,20,F,112,The bath cleaned Jack,Non-sensible,edin_semantics,emo_sem_emo_sem,1.14908106811345,2,1,1,1,1552018.67213775,80,B
43,3,22/6/95,20,F,113,Dan whisked the eggs,Sensible,edin_semantics,emo_sem_emo_sem,1.23127562575974,1,1,1,1,1552020.64801723,62,B
43,3,22/6/95,20,F,114,The sugar weighed Liz,Non-sensible,edin_semantics,emo_sem_emo_sem,1.20797519409098,2,2,2,1,1552022.60035735,139,B
43,3,22/6/95,20,F,115,Dan carried the folder,Sensible,edin_semantics,emo_sem_emo_sem,1.18452690984122,1,1,1,1,1552024.52918856,30,B
43,3,22/6/95,20,F,116,The carrots grated Tom,Non-sensible,edin_semantics,emo_sem_emo_sem,1.07903576944955,1,1,1,1,1552026.35218322,140,B
43,3,22/6/95,20,F,117,The car lent Fred,Non-sensible,edin_semantics,emo_sem_emo_sem,1.5371921712067,2,1,1,1,1552028.63384005,94,B
43,3,22/6/95,20,F,118,The button pushed Ian,Non-sensible,edin_semantics,emo_sem_emo_sem,1.12490731151775,2,2,2,1,1552030.50385347,101,B
43,3,22/6/95,20,F,119,Tim ate the ham,Sensible,edin_semantics,emo_sem_emo_sem,1.91401707776822,1,2,2,1,1552033.16185894,67,B
43,3,22/6/95,20,F,120,Beth wiped the table,Sensible,edin_semantics,emo_sem_emo_sem,1.04325573588721,2,1,1,1,1552034.94955785,40,B
43,3,22/6/95,20,F,121,The gift posted Jack,Non-sensible,edin_semantics,emo_sem_emo_sem,1.09017058531754,1,2,2,1,1552036.78431209,111,B
43,3,22/6/95,20,F,122,Ryan painted the picture,Sensible,edin_semantics,emo_sem_emo_sem,1.28994652931578,1,2,2,1,1552038.8189898,35,B
43,3,22/6/95,20,F,123,The dress wore Kate,Non-sensible,edin_semantics,emo_sem_emo_sem,0.948550787055865,2,1,2,0,1552040.51259025,100,B
43,3,22/6/95,20,F,124,Tim cleaned the floor,Sensible,edin_semantics,emo_sem_emo_sem,1.45510858367197,1,2,2,1,1552042.71197524,5,B
43,3,22/6/95,20,F,125,Kate lifted the box,Sensible,edin_semantics,emo_sem_emo_sem,2.14899447350763,2,2,2,1,1552045.60518678,69,B
43,3,22/6/95,20,F,126,Josh ironed the shirt,Sensible,edin_semantics,emo_sem_emo_sem,1.26693827519193,1,2,2,1,1552047.61634212,55,B
43,3,22/6/95,20,F,127,Matt kicked the bike,Sensible,edin_semantics,emo_sem_emo_sem,2.05463718669489,2,2,2,1,1552050.41551709,39,B
43,3,22/6/95,20,F,128,The hotline dialed Hugh,Non-sensible,edin_semantics,emo_sem_emo_sem,0.972625120077282,1,1,1,1,1552052.13264857,138,B
43,3,22/6/95,20,F,129,Kate built the house,Sensible,edin_semantics,emo_sem_emo_sem,1.44262545346282,1,1,1,1,1552054.32019796,46,B
43,3,22/6/95,20,F,130,The radio got Ben,Non-sensible,edin_semantics,emo_sem_emo_sem,1.24320358643308,1,1,1,1,1552056.30788321,88,B
43,3,22/6/95,20,F,131,Phil chopped the herbs,Sensible,edin_semantics,emo_sem_emo_sem,0.984098297543824,2,2,2,1,1552058.03677395,27,B
43,3,22/6/95,20,F,132,The party cancelled Phil,Non-sensible,edin_semantics,emo_sem_emo_sem,1.69020240101963,1,1,1,1,1552060.47129412,82,B
43,3,22/6/95,20,F,133,Max kissed the mirror,Sensible,edin_semantics,emo_sem_emo_sem,2.2664408357814,1,2,2,1,1552063.48215857,23,B
43,3,22/6/95,20,F,134,The wallet carried Leo,Non-sensible,edin_semantics,emo_sem_emo_sem,0.996301437262446,2,1,1,1,1552065.22283487,150,B
43,3,22/6/95,20,F,135,Mary visited the museum,Sensible,edin_semantics,emo_sem_emo_sem,0.902049988973886,2,1,1,1,1552066.86938705,16,B
43,3,22/6/95,20,F,136,Sean read the book,Sensible,edin_semantics,emo_sem_emo_sem,1.20825454266742,2,1,1,1,1552068.82171209,4,B
43,3,22/6/95,20,F,137,Ryan carried the gun,Sensible,edin_semantics,emo_sem_emo_sem,1.70193536323495,2,2,2,1,1552071.26808004,75,B
43,3,22/6/95,20,F,138,The blanket stroked Ryan,Non-sensible,edin_semantics,emo_sem_emo_sem,0.90204197098501,1,1,1,1,1552072.91462837,116,B
43,3,22/6/95,20,F,139,The office entered Joe,Non-sensible,edin_semantics,emo_sem_emo_sem,0.937211350537837,1,2,2,1,1552074.59648977,133,B
43,3,22/6/95,20,F,140,Tom knitted the scarf,Sensible,edin_semantics,emo_sem_emo_sem,0.972310171229765,2,1,1,1,1552076.31357987,66,B
43,3,22/6/95,20,F,141,The trousers ironed Eve,Non-sensible,edin_semantics,emo_sem_emo_sem,1.17235808703117,1,1,2,0,1552078.23065663,130,B
43,3,22/6/95,20,F,142,Max lent the bucket,Sensible,edin_semantics,emo_sem_emo_sem,1.30245692073368,2,2,2,1,1552080.27708719,19,B
43,3,22/6/95,20,F,143,Amy measured the thread,Sensible,edin_semantics,emo_sem_emo_sem,1.60823587677442,1,2,2,1,1552082.6293477,51,B
43,3,22/6/95,20,F,144,Ryan entered the room,Sensible,edin_semantics,emo_sem_emo_sem,1.04365278920159,1,1,1,1,1552084.41703667,58,B
43,3,22/6/95,20,F,145,Carl brushed the teeth,Sensible,edin_semantics,emo_sem_emo_sem,0.938199814641848,2,1,1,1,1552086.0988878,72,B
43,3,22/6/95,20,F,146,The turnip mashed Ella,Non-sensible,edin_semantics,emo_sem_emo_sem,0.725915724644437,2,2,2,1,1552087.56903727,103,B
43,3,22/6/95,20,F,147,The socks knitted Ryan,Non-sensible,edin_semantics,emo_sem_emo_sem,0.878953536506742,2,2,2,1,1552089.1920581,141,B
43,3,22/6/95,20,F,148,Ewan wrote the story,Sensible,edin_semantics,emo_sem_emo_sem,1.32594080502167,1,1,1,1,1552091.26208127,74,B
43,3,22/6/95,20,F,149,The hair brushed Dan,Non-sensible,edin_semantics,emo_sem_emo_sem,1.09061991656199,1,2,2,1,1552093.09677457,147,B
43,3,22/6/95,20,F,150,The hedge jumped Sara,Non-sensible,edin_semantics,emo_sem_emo_sem,0.854757328983396,2,1,1,1,1552094.69628842,92,B
43,3,22/6/95,20,F,24,The cheese grated Andy,Non-sensible,edin_semantics,emo_sem_emo_sem,1.04961660923436,1,1,1,1,1552103.55247552,65,A
43,3,22/6/95,20,F,25,The house built Kate,Non-sensible,edin_semantics,emo_sem_emo_sem,1.03156318468973,1,2,2,1,1552105.32839753,46,A
43,3,22/6/95,20,F,26,Lucy counted the shoes,Sensible,edin_semantics,emo_sem_emo_sem,0.854979589348659,2,1,1,1,1552106.92789695,123,A
43,3,22/6/95,20,F,27,Lucy cut the ribbon,Sensible,edin_semantics,emo_sem_emo_sem,1.77245404710993,2,1,1,1,1552109.44478519,95,A
43,3,22/6/95,20,F,28,Fred chopped the carrots,Sensible,edin_semantics,emo_sem_emo_sem,1.31375498394482,2,2,2,1,1552111.5030289,102,A
43,3,22/6/95,20,F,29,The dishes washed Mark,Non-sensible,edin_semantics,emo_sem_emo_sem,0.960907873231918,2,1,1,1,1552113.20836198,57,A
43,3,22/6/95,20,F,30,Fred served the dessert,Sensible,edin_semantics,emo_sem_emo_sem,1.65494514373131,1,1,1,1,1552115.6076342,145,A
43,3,22/6/95,20,F,31,Luke fixed the radio,Sensible,edin_semantics,emo_sem_emo_sem,1.58495885785669,1,2,2,1,1552117.93641756,112,A
43,3,22/6/95,20,F,32,Hugh kissed the rose,Sensible,edin_semantics,emo_sem_emo_sem,1.67872056411579,1,2,2,1,1552120.3591525,98,A
43,3,22/6/95,20,F,33,Ryan stroked the blanket,Sensible,edin_semantics,emo_sem_emo_sem,1.04365631728433,1,2,2,1,1552122.14684436,116,A
43,3,22/6/95,20,F,34,Josh scrubbed the pot,Sensible,edin_semantics,emo_sem_emo_sem,0.937690187944099,1,1,1,1,1552123.82869837,131,A
43,3,22/6/95,20,F,35,The herbs chopped Phil,Non-sensible,edin_semantics,emo_sem_emo_sem,1.26709318393841,1,1,1,1,1552125.83986911,27,A
43,3,22/6/95,20,F,36,The floor cleaned Tim,Non-sensible,edin_semantics,emo_sem_emo_sem,0.902557370718569,2,1,1,1,1552127.48643026,5,A
43,3,22/6/95,20,F,37,The lesson taught Eve,Non-sensible,edin_semantics,emo_sem_emo_sem,1.77309613185935,2,1,1,1,1552130.00329734,15,A
43,3,22/6/95,20,F,38,The room entered Ryan,Non-sensible,edin_semantics,emo_sem_emo_sem,1.13803028129041,2,2,2,1,1552131.88518388,58,A
43,3,22/6/95,20,F,39,Fred lent the car,Sensible,edin_semantics,emo_sem_emo_sem,1.05592520511709,2,2,2,1,1552133.68455706,94,A
43,3,22/6/95,20,F,40,Ian pushed the button,Sensible,edin_semantics,emo_sem_emo_sem,0.89134814706631,1,1,1,1,1552135.31934196,101,A
43,3,22/6/95,20,F,41,Bill trimmed the hair,Sensible,edin_semantics,emo_sem_emo_sem,0.949235207168385,1,1,1,1,1552137.0129764,107,A
43,3,22/6/95,20,F,42,The hill climbed Luke,Non-sensible,edin_semantics,emo_sem_emo_sem,1.52651855302975,1,2,2,1,1552139.28286531,68,A
43,3,22/6/95,20,F,43,The flour weighed Jen,Non-sensible,edin_semantics,emo_sem_emo_sem,1.22031816863455,1,2,2,1,1552141.24698041,64,A
43,3,22/6/95,20,F,44,The jar labeled Liz,Non-sensible,edin_semantics,emo_sem_emo_sem,0.902788931736723,1,1,1,1,1552142.89356401,61,A
43,3,22/6/95,20,F,45,Ryan knitted the socks,Sensible,edin_semantics,emo_sem_emo_sem,2.23180193011649,1,1,1,1,1552145.86916447,141,A
43,3,22/6/95,20,F,46,The wine stored Leo,Non-sensible,edin_semantics,emo_sem_emo_sem,3.84299646434374,1,2,2,1,1552150.45600628,52,A
43,3,22/6/95,20,F,47,The bucket lent Max,Non-sensible,edin_semantics,emo_sem_emo_sem,1.17260921234265,2,1,1,1,1552152.37303686,19,A
43,3,22/6/95,20,F,48,Leo carried the wallet,Sensible,edin_semantics,emo_sem_emo_sem,1.11387865431607,2,2,2,1,1552154.23130192,150,A
43,3,22/6/95,20,F,49,Kate wore the dress,Sensible,edin_semantics,emo_sem_emo_sem,1.05541718192399,2,2,2,1,1552156.03077389,100,A
43,3,22/6/95,20,F,50,Erin described the church,Sensible,edin_semantics,emo_sem_emo_sem,0.949531233171001,1,1,1,1,1552157.72444393,117,A
43,3,22/6/95,20,F,51,The garlic crushed Erin,Non-sensible,edin_semantics,emo_sem_emo_sem,1.09035051031969,1,2,2,1,1552159.55913018,6,A
43,3,22/6/95,20,F,52,The kettle got Lily,Non-sensible,edin_semantics,emo_sem_emo_sem,1.89079875103198,2,1,1,1,1552162.19361103,13,A
43,3,22/6/95,20,F,53,Ella mashed the turnip,Sensible,edin_semantics,emo_sem_emo_sem,1.03171520680189,1,1,2,0,1552163.96955164,103,A
43,3,22/6/95,20,F,54,The room tidied Sam,Non-sensible,edin_semantics,emo_sem_emo_sem,1.2078539612703,1,2,2,1,1552165.92193217,2,A
43,3,22/6/95,20,F,55,The tree hugged Amy,Non-sensible,edin_semantics,emo_sem_emo_sem,1.1608868339099,1,1,1,1,1552167.82721535,11,A
43,3,22/6/95,20,F,56,Erin tidied the garage,Sensible,edin_semantics,emo_sem_emo_sem,1.16079895640723,1,1,1,1,1552169.73253702,77,A
43,3,22/6/95,20,F,57,The bowl scrubbed Liz,Non-sensible,edin_semantics,emo_sem_emo_sem,1.1255109095946,1,2,2,1,1552171.60256616,56,A
43,3,22/6/95,20,F,58,The lolly sucked Leah,Non-sensible,edin_semantics,emo_sem_emo_sem,1.0779793120455,2,2,2,1,1552173.42551816,12,A
43,3,22/6/95,20,F,59,The scarf knitted Tom,Non-sensible,edin_semantics,emo_sem_emo_sem,0.808059287257493,2,2,2,1,1552174.97801902,66,A
43,3,22/6/95,20,F,60,The museum visited Mary,Non-sensible,edin_semantics,emo_sem_emo_sem,1.19588142028078,1,2,2,1,1552176.91859506,16,A
43,3,22/6/95,20,F,61,Lucy wiped the desk,Sensible,edin_semantics,emo_sem_emo_sem,1.34840222867206,2,1,1,1,1552179.01210051,115,A
43,3,22/6/95,20,F,62,Ben climbed the stairs,Sensible,edin_semantics,emo_sem_emo_sem,0.807995143113658,1,1,1,1,1552180.56457475,143,A
43,3,22/6/95,20,F,63,Dan brushed the hair,Sensible,edin_semantics,emo_sem_emo_sem,0.807949921116233,1,1,1,1,1552182.11704065,147,A
43,3,22/6/95,20,F,64,Sara jumped the hedge,Sensible,edin_semantics,emo_sem_emo_sem,0.996097137685865,2,2,2,1,1552183.85771021,92,A
43,3,22/6/95,20,F,65,Erin punched the monitor,Sensible,edin_semantics,emo_sem_emo_sem,1.04350846447051,1,1,1,1,1552185.64537834,125,A
43,3,22/6/95,20,F,66,Joe entered the office,Sensible,edin_semantics,emo_sem_emo_sem,1.20794921554625,2,1,1,1,1552187.59776912,133,A
43,3,22/6/95,20,F,67,Fred stored the rice,Sensible,edin_semantics,emo_sem_emo_sem,1.99618309107609,2,1,1,1,1552190.33808493,127,A
43,3,22/6/95,20,F,68,Max searched the internet,Sensible,edin_semantics,emo_sem_emo_sem,1.19598854123615,1,1,1,1,1552192.27867765,85,A
43,3,22/6/95,20,F,69,Luke read the poster,Sensible,edin_semantics,emo_sem_emo_sem,1.58412401936948,1,1,1,1,1552194.60739751,79,A
43,3,22/6/95,20,F,70,The parcel mailed Rob,Non-sensible,edin_semantics,emo_sem_emo_sem,1.43121289252304,2,2,2,1,1552196.78320111,14,A
43,3,22/6/95,20,F,71,The pill swallowed Luke,Non-sensible,edin_semantics,emo_sem_emo_sem,1.03164079925045,2,2,2,1,1552198.55914044,22,A
43,3,22/6/95,20,F,72,The card posted Erin,Non-sensible,edin_semantics,emo_sem_emo_sem,1.01991136535071,2,2,2,1,1552200.32331217,36,A
43,3,22/6/95,20,F,73,Ian labeled the box,Sensible,edin_semantics,emo_sem_emo_sem,1.03112251311541,1,2,2,1,1552202.09921718,136,A
43,3,22/6/95,20,F,74,Andy pulled the rope,Sensible,edin_semantics,emo_sem_emo_sem,0.949770170729607,1,2,2,1,1552203.79286862,148,A
43,3,22/6/95,20,F,75,Joe iced the donut,Sensible,edin_semantics,emo_sem_emo_sem,0.973146613454446,1,1,1,1,1552205.5099815,119,A
43,3,22/6/95,20,F,76,The plans cancelled Ian,Non-sensible,edin_semantics,emo_sem_emo_sem,0.961756182368845,1,1,1,1,1552207.21537072,7,A
43,3,22/6/95,20,F,77,Phil solved the problem,Sensible,edin_semantics,emo_sem_emo_sem,0.820393923204392,2,1,1,1,1552208.77964783,109,A
43,3,22/6/95,20,F,78,Jay painted the portrait,Sensible,edin_semantics,emo_sem_emo_sem,1.29102351283655,2,2,2,1,1552210.81429572,110,A
43,3,22/6/95,20,F,79,Rose built the shed,Sensible,edin_semantics,emo_sem_emo_sem,0.949288446921855,1,1,1,1,1552212.50787885,121,A
43,3,22/6/95,20,F,80,The table wiped Beth,Non-sensible,edin_semantics,emo_sem_emo_sem,1.50272677582689,2,2,2,1,1552214.75428035,40,A
43,3,22/6/95,20,F,81,The ball squeezed Josh,Non-sensible,edin_semantics,emo_sem_emo_sem,0.855367021169513,2,1,1,1,1552216.35377849,1,A
43,3,22/6/95,20,F,82,Sam sucked the candy,Sensible,edin_semantics,emo_sem_emo_sem,1.09048232692294,2,1,1,1,1552218.18853112,87,A
43,3,22/6/95,20,F,83,The garden watered Jeff,Non-sensible,edin_semantics,emo_sem_emo_sem,1.50197275914252,1,2,2,1,1552220.43491274,54,A
43,3,22/6/95,20,F,84,Beth washed the pan,Sensible,edin_semantics,emo_sem_emo_sem,1.23155080480501,1,2,2,1,1552222.41081531,132,A
43,3,22/6/95,20,F,85,The eggs whisked Dan,Non-sensible,edin_semantics,emo_sem_emo_sem,1.36103994655423,2,2,2,1,1552224.51607618,62,A
43,3,22/6/95,20,F,86,Hugh dialed the hotline,Sensible,edin_semantics,emo_sem_emo_sem,1.43146016891114,1,2,2,1,1552226.69187689,138,A
43,3,22/6/95,20,F,87,Tim sniffed the perfume,Sensible,edin_semantics,emo_sem_emo_sem,0.867130130995065,1,1,1,1,1552228.30313428,93,A
43,3,22/6/95,20,F,88,The lorry dented Lily,Non-sensible,edin_semantics,emo_sem_emo_sem,1.07842864328995,2,1,1,1,1552230.12611098,71,A
43,3,22/6/95,20,F,89,The fruits mixed Jack,Non-sensible,edin_semantics,emo_sem_emo_sem,0.902620873646811,1,2,2,1,1552231.77267053,8,A
43,3,22/6/95,20,F,90,Josh taught the rules,Sensible,edin_semantics,emo_sem_emo_sem,1.19661234482192,2,2,2,1,1552233.71330848,90,A
43,3,22/6/95,20,F,91,Tom visited the hospital,Sensible,edin_semantics,emo_sem_emo_sem,1.12552405917086,2,1,1,1,1552235.58331099,91,A
43,3,22/6/95,20,F,92,The toffee chewed Ben,Non-sensible,edin_semantics,emo_sem_emo_sem,1.29041606583633,1,1,1,1,1552237.61802527,31,A
43,3,22/6/95,20,F,93,Emma pulled the rope,Sensible,edin_semantics,emo_sem_emo_sem,0.961101910099387,2,2,2,1,1552239.32334841,120,A
43,3,22/6/95,20,F,94,Eve ironed the trousers,Sensible,edin_semantics,emo_sem_emo_sem,0.807976541109383,1,2,2,1,1552240.87583869,130,A
43,3,22/6/95,20,F,95,The dish served Kate,Non-sensible,edin_semantics,emo_sem_emo_sem,1.05524335079826,1,2,2,1,1552242.67528884,70,A
43,3,22/6/95,20,F,96,The trolley pushed Matt,Non-sensible,edin_semantics,emo_sem_emo_sem,0.937725788215175,2,2,2,1,1552244.35711624,26,A
43,3,22/6/95,20,F,97,Leo passed the salt,Sensible,edin_semantics,emo_sem_emo_sem,1.20801143557765,1,2,2,1,1552246.30947527,118,A
43,3,22/6/95,20,F,98,The photo took Beth,Non-sensible,edin_semantics,emo_sem_emo_sem,1.21961803315207,1,1,1,1,1552248.2735801,53,A
43,3,22/6/95,20,F,99,Jane licked the plate,Sensible,edin_semantics,emo_sem_emo_sem,0.890863216016442,2,2,2,1,1552249.90841439,96,A
43,3,22/6/95,20,F,100,The pen described John,Non-sensible,edin_semantics,emo_sem_emo_sem,1.53705169516616,2,2,2,1,1552252.19006032,42,A
43,3,22/6/95,20,F,101,The jumper wore Joe,Non-sensible,edin_semantics,emo_sem_emo_sem,1.0783163907472,2,1,1,1,1552254.01307422,25,A
43,3,22/6/95,20,F,102,Jack posted the gift,Sensible,edin_semantics,emo_sem_emo_sem,0.726113930577412,2,1,1,1,1552255.48338309,111,A
43,3,22/6/95,20,F,103,The book read Sean,Non-sensible,edin_semantics,emo_sem_emo_sem,0.971029850188643,2,2,2,1,1552257.20030417,4,A
43,3,22/6/95,20,F,104,The letter typed Phil,Non-sensible,edin_semantics,emo_sem_emo_sem,0.596374305197969,2,1,1,1,1552258.54109856,49,A
43,3,22/6/95,20,F,105,The potatoes mashed Will,Non-sensible,edin_semantics,emo_sem_emo_sem,0.938107126159593,2,2,2,1,1552260.22297791,28,A
43,3,22/6/95,20,F,106,The folder carried Dan,Non-sensible,edin_semantics,emo_sem_emo_sem,1.16089164488949,1,2,2,1,1552262.12828323,30,A
43,3,22/6/95,20,F,107,The thread measured Amy,Non-sensible,edin_semantics,emo_sem_emo_sem,1.04394913627766,2,1,1,1,1552263.91597829,51,A
43,3,22/6/95,20,F,108,The shelf dusted Jake,Non-sensible,edin_semantics,emo_sem_emo_sem,1.03157665510662,1,1,1,1,1552265.69187913,47,A
43,3,22/6/95,20,F,109,The box lifted Kate,Non-sensible,edin_semantics,emo_sem_emo_sem,0.831935414345935,2,1,1,1,1552267.26785682,69,A
43,3,22/6/95,20,F,110,Phil cancelled the party,Sensible,edin_semantics,emo_sem_emo_sem,1.78441247646697,1,2,2,1,1552269.79654345,82,A
43,3,22/6/95,20,F,111,Adam watched the opera,Sensible,edin_semantics,emo_sem_emo_sem,0.949402623809874,1,2,2,1,1552271.4901237,108,A
43,3,22/6/95,20,F,112,John carried the kettle,Sensible,edin_semantics,emo_sem_emo_sem,1.07888503023423,1,1,1,1,1552273.31311643,105,A
43,3,22/6/95,20,F,113,The handle pulled Tim,Non-sensible,edin_semantics,emo_sem_emo_sem,1.33776517258957,2,1,1,1,1552275.39483728,73,A
43,3,22/6/95,20,F,114,The paper cut Jon,Non-sensible,edin_semantics,emo_sem_emo_sem,1.09029534622096,1,2,2,1,1552277.22957773,20,A
43,3,22/6/95,20,F,115,Liam sliced the onion,Sensible,edin_semantics,emo_sem_emo_sem,1.25530217122287,2,2,2,1,1552279.22902127,78,A
43,3,22/6/95,20,F,116,The bill paid Mike,Non-sensible,edin_semantics,emo_sem_emo_sem,0.831544134067371,2,1,1,1,1552280.8049887,59,A
43,3,22/6/95,20,F,117,The spoon licked Will,Non-sensible,edin_semantics,emo_sem_emo_sem,1.18443325906992,1,1,1,1,1552282.73383114,21,A
43,3,22/6/95,20,F,118,Jack drank the beer,Sensible,edin_semantics,emo_sem_emo_sem,0.937271966831759,2,1,1,1,1552284.41564153,135,A
43,3,22/6/95,20,F,119,The juice drank Matt,Non-sensible,edin_semantics,emo_sem_emo_sem,1.61984247434884,2,2,2,1,1552286.77964238,60,A
43,3,22/6/95,20,F,120,Max kicked the door,Sensible,edin_semantics,emo_sem_emo_sem,1.33702975767665,1,2,2,1,1552288.86138568,114,A
43,3,22/6/95,20,F,121,Zoe paid the debt,Sensible,edin_semantics,emo_sem_emo_sem,1.38431183388457,1,2,2,1,1552290.99013973,134,A
43,3,22/6/95,20,F,122,The puzzle solved Joe,Non-sensible,edin_semantics,emo_sem_emo_sem,1.2197998824995,1,2,2,1,1552292.95427952,34,A
43,3,22/6/95,20,F,123,Alex wrote the report,Sensible,edin_semantics,emo_sem_emo_sem,1.05481807375327,1,1,1,1,1552294.75371813,149,A
43,3,22/6/95,20,F,124,Ian filed the report,Sensible,edin_semantics,emo_sem_emo_sem,0.996180845890194,1,1,1,1,1552296.49438448,99,A
43,3,22/6/95,20,F,125,Alex dusted the house,Sensible,edin_semantics,emo_sem_emo_sem,0.866971694398671,1,2,2,1,1552298.10565727,122,A
43,3,22/6/95,20,F,126,Rob measured the curtains,Sensible,edin_semantics,emo_sem_emo_sem,1.09056795947254,1,2,2,1,1552299.94041825,126,A
43,3,22/6/95,20,F,127,The bike kicked Matt,Non-sensible,edin_semantics,emo_sem_emo_sem,2.46590535901487,2,1,1,1,1552303.15119559,39,A
43,3,22/6/95,20,F,128,The story wrote Ewan,Non-sensible,edin_semantics,emo_sem_emo_sem,0.972656550584361,2,2,2,1,1552304.86832578,74,A
43,3,22/6/95,20,F,129,The lever pulled Hugh,Non-sensible,edin_semantics,emo_sem_emo_sem,0.78487239126116,1,1,1,1,1552306.39731293,45,A
43,3,22/6/95,20,F,130,Kate hugged the pillow,Sensible,edin_semantics,emo_sem_emo_sem,0.748959899414331,2,2,2,1,1552307.89096553,86,A
43,3,22/6/95,20,F,131,The teeth brushed Carl,Non-sensible,edin_semantics,emo_sem_emo_sem,0.92569968639873,1,2,2,1,1552309.56106766,72,A
43,3,22/6/95,20,F,132,Tom grated the carrots,Sensible,edin_semantics,emo_sem_emo_sem,1.85497894790024,2,2,2,1,1552312.16023833,140,A
43,3,22/6/95,20,F,133,Anna polished the trophy,Sensible,edin_semantics,emo_sem_emo_sem,1.04319351562299,2,2,2,1,1552313.94795617,104,A
43,3,22/6/95,20,F,134,Tom offered the sweets,Sensible,edin_semantics,emo_sem_emo_sem,0.925144837936386,2,2,2,1,1552315.61803617,84,A
43,3,22/6/95,20,F,135,The ham ate Tim,Non-sensible,edin_semantics,emo_sem_emo_sem,1.13781635998748,2,1,1,1,1552317.49979923,67,A
43,3,22/6/95,20,F,136,Eve typed the message,Sensible,edin_semantics,emo_sem_emo_sem,2.14878279715776,1,2,2,1,1552320.39310955,124,A
43,3,22/6/95,20,F,137,The tomato sliced Liz,Non-sensible,edin_semantics,emo_sem_emo_sem,0.961091967532411,1,1,1,1,1552322.09839197,3,A
43,3,22/6/95,20,F,138,Ian dented the bowl,Sensible,edin_semantics,emo_sem_emo_sem,1.12602021568455,2,2,2,1,1552323.96844291,146,A
43,3,22/6/95,20,F,139,Jay squeezed the lemon,Sensible,edin_semantics,emo_sem_emo_sem,1.0665568090044,2,2,2,1,1552325.77967927,76,A
43,3,22/6/95,20,F,140,Liz weighed the sugar,Sensible,edin_semantics,emo_sem_emo_sem,1.54905213904567,2,1,1,1,1552328.07313513,139,A
43,3,22/6/95,20,F,141,The laptop fixed Jen,Non-sensible,edin_semantics,emo_sem_emo_sem,1.05519428034313,1,1,1,1,1552329.87255257,37,A
43,3,22/6/95,20,F,142,The sheets counted Bill,Non-sensible,edin_semantics,emo_sem_emo_sem,1.1727557820268,1,2,2,1,1552331.78963896,48,A
43,3,22/6/95,20,F,143,Luke watered the plants,Sensible,edin_semantics,emo_sem_emo_sem,1.06639356142841,2,1,1,1,1552333.6008596,129,A
43,3,22/6/95,20,F,144,The fence jumped Jon,Non-sensible,edin_semantics,emo_sem_emo_sem,0.937553881201893,1,1,1,1,1552335.28271297,17,A
43,3,22/6/95,20,F,145,Jay sold the bed,Sensible,edin_semantics,emo_sem_emo_sem,0.902499961433932,2,1,1,1,1552336.92926258,113,A
43,3,22/6/95,20,F,146,The coins polished Jon,Non-sensible,edin_semantics,emo_sem_emo_sem,0.831547661917284,1,1,1,1,1552338.50527138,29,A
43,3,22/6/95,20,F,147,Mike ate the steak,Sensible,edin_semantics,emo_sem_emo_sem,0.855833991896361,2,2,2,1,1552340.10477914,142,A
43,3,22/6/95,20,F,148,The gun carried Ryan,Non-sensible,edin_semantics,emo_sem_emo_sem,0.761367339175195,2,1,1,1,1552341.61019966,75,A
43,3,22/6/95,20,F,149,Jack cleaned the bath,Sensible,edin_semantics,emo_sem_emo_sem,1.29069477296434,1,2,2,1,1552343.64487256,80,A
43,3,22/6/95,20,F,150,The towels passed Phil,Non-sensible,edin_semantics,emo_sem_emo_sem,0.761387224076316,2,1,1,1,1552345.15030847,43,A
43,3,22/6/95,20,F,151,The cake iced Mary,Non-sensible,edin_semantics,emo_sem_emo_sem,1.17298670159653,1,2,2,1,1552347.06739197,44,A
43,3,22/6/95,20,F,152,Adam chewed the fat,Sensible,edin_semantics,emo_sem_emo_sem,0.890442429110408,2,2,2,1,1552348.70218264,106,A
43,3,22/6/95,20,F,153,The movie watched Ella,Non-sensible,edin_semantics,emo_sem_emo_sem,0.901901815552264,1,1,1,1,1552350.34877298,33,A
43,3,22/6/95,20,F,154,The picture painted Ryan,Non-sensible,edin_semantics,emo_sem_emo_sem,0.843352786265314,2,1,1,1,1552351.93652244,35,A
43,3,22/6/95,20,F,155,Tim took the ticket,Sensible,edin_semantics,emo_sem_emo_sem,0.890536079881713,2,2,2,1,1552353.57129387,128,A
43,3,22/6/95,20,F,156,The shirt ironed Josh,Non-sensible,edin_semantics,emo_sem_emo_sem,0.784572837175801,2,1,1,1,1552355.10025408,55,A
43,3,22/6/95,20,F,157,Tom whisked the cream,Sensible,edin_semantics,emo_sem_emo_sem,0.772778938058764,2,1,1,1,1552356.61747651,137,A
43,3,22/6/95,20,F,158,The money offered Matt,Non-sensible,edin_semantics,emo_sem_emo_sem,1.51353124855086,1,1,1,1,1552358.87558756,9,A
43,3,22/6/95,20,F,159,Liam mixed the nuts,Sensible,edin_semantics,emo_sem_emo_sem,1.16114309057593,2,1,2,0,1552360.78091404,83,A
43,3,22/6/95,20,F,160,The number dialed Tom,Non-sensible,edin_semantics,emo_sem_emo_sem,1.06666585430503,2,1,1,1,1552362.59216612,63,A
43,3,22/6/95,20,F,161,The fur stroked Rob,Non-sensible,edin_semantics,emo_sem_emo_sem,2.2073116209358,2,1,1,1,1552365.54420603,41,A
43,3,22/6/95,20,F,162,The milk sniffed Phil,Non-sensible,edin_semantics,emo_sem_emo_sem,1.19628841616213,1,2,2,1,1552367.48475963,18,A
43,3,22/6/95,20,F,163,The wall punched Jane,Non-sensible,edin_semantics,emo_sem_emo_sem,2.19588687247597,2,2,2,1,1552370.42506337,50,A
43,3,22/6/95,20,F,164,Owen swallowed the gum,Sensible,edin_semantics,emo_sem_emo_sem,1.06660972791724,2,1,1,1,1552372.23627407,97,A
43,3,22/6/95,20,F,165,The room searched Jen,Non-sensible,edin_semantics,emo_sem_emo_sem,1.69030599412508,1,2,2,1,1552374.67084909,10,A
43,3,22/6/95,20,F,166,Josh crushed the ice,Sensible,edin_semantics,emo_sem_emo_sem,0.807327079586685,2,1,1,1,1552376.22330345,81,A
43,3,22/6/95,20,F,167,The papers filed Lara,Non-sensible,edin_semantics,emo_sem_emo_sem,0.960984525969252,1,2,2,1,1552377.92868625,24,A
43,3,22/6/95,20,F,168,Ben got the radio,Sensible,edin_semantics,emo_sem_emo_sem,1.07860856805928,1,2,2,1,1552379.75174088,88,A
43,3,22/6/95,20,F,169,The sofa sold Carl,Non-sensible,edin_semantics,emo_sem_emo_sem,1.33720743749291,1,2,2,1,1552381.83340015,38,A
43,3,22/6/95,20,F,170,Amy lifted the crate,Sensible,edin_semantics,emo_sem_emo_sem,1.16095194057561,2,2,2,1,1552383.73868911,144,A
43,3,22/6/95,20,F,171,The mirror kissed Max,Non-sensible,edin_semantics,emo_sem_emo_sem,0.925132650649175,1,1,1,1,1552385.40879445,23,A
43,3,22/6/95,20,F,172,Ian mailed the invite,Sensible,edin_semantics,emo_sem_emo_sem,1.2790144092869,1,1,1,1,1552387.43170231,89,A
43,3,22/6/95,20,F,173,The bushes trimmed Jon,Non-sensible,edin_semantics,emo_sem_emo_sem,0.926181731279939,2,2,2,1,1552389.10178777,32,A
