subject_column,AssignedList_column,subject_dob_column,subject_age_column,subject_gender_column,trialnum_column,Stim_column,Type_column,Experiment_column,OrderGroup_column,ReactionTime_column,StimSide_column,StimPosition_column,Response_column,Valid_column,TrialEndSecs_column,PairID_column,List_column
44,4,21/12/94,21,F,1,Phil sniffed the milk,Sensible,edin_semantics,sem_emo_sem_emo,1.28455199021846,1,1,2,0,1560816.44526082,18,B
44,4,21/12/94,21,F,2,Jon jumped the fence,Sensible,edin_semantics,sem_emo_sem_emo,0.94945618417114,1,2,2,1,1560818.13888597,17,B
44,4,21/12/94,21,F,3,The pot scrubbed Josh,Non-sensible,edin_semantics,sem_emo_sem_emo,1.18478092132136,2,2,1,0,1560820.06768639,131,B
44,4,21/12/94,21,F,4,Sean read the book,Sensible,edin_semantics,sem_emo_sem_emo,1.07856302568689,2,1,1,1,1560821.89072851,4,B
44,4,21/12/94,21,F,5,Jane punched the wall,Sensible,edin_semantics,sem_emo_sem_emo,1.23136606905609,1,1,2,0,1560823.86654578,50,B
44,4,21/12/94,21,F,6,The car lent Fred,Non-sensible,edin_semantics,sem_emo_sem_emo,1.47872300166637,1,1,2,0,1560826.08941785,94,B
44,4,21/12/94,21,F,7,Ryan entered the room,Sensible,edin_semantics,sem_emo_sem_emo,2.44330762862228,1,1,2,0,1560829.27668533,58,B
44,4,21/12/94,21,F,8,Max kissed the mirror,Sensible,edin_semantics,sem_emo_sem_emo,1.27864814526401,1,2,2,1,1560831.29961757,23,B
44,4,21/12/94,21,F,9,The socks knitted Ryan,Non-sensible,edin_semantics,sem_emo_sem_emo,1.0086091326084,1,2,2,1,1560833.05206404,141,B
44,4,21/12/94,21,F,10,Liz scrubbed the bowl,Sensible,edin_semantics,sem_emo_sem_emo,0.832144845742732,2,1,1,1,1560834.62805359,56,B
44,4,21/12/94,21,F,11,Rob stroked the fur,Sensible,edin_semantics,sem_emo_sem_emo,1.16148048988543,1,2,2,1,1560836.53333325,41,B
44,4,21/12/94,21,F,12,Amy hugged the tree,Sensible,edin_semantics,sem_emo_sem_emo,1.43214458902366,1,2,2,1,1560838.70915994,11,B
44,4,21/12/94,21,F,13,Ryan painted the picture,Sensible,edin_semantics,sem_emo_sem_emo,1.07911338401027,1,2,2,1,1560840.53214209,35,B
44,4,21/12/94,21,F,14,The house dusted Alex,Non-sensible,edin_semantics,sem_emo_sem_emo,0.832453379873186,2,1,1,1,1560842.10812619,122,B
44,4,21/12/94,21,F,15,The turnip mashed Ella,Non-sensible,edin_semantics,sem_emo_sem_emo,2.19679996720515,2,2,1,0,1560845.04849152,103,B
44,4,21/12/94,21,F,16,The plants watered Luke,Non-sensible,edin_semantics,sem_emo_sem_emo,3.16057669604197,2,2,1,0,1560848.95318008,129,B
44,4,21/12/94,21,F,17,Ewan wrote the story,Sensible,edin_semantics,sem_emo_sem_emo,2.51345459604636,1,1,2,0,1560852.21098709,74,B
44,4,21/12/94,21,F,18,Andy grated the cheese,Sensible,edin_semantics,sem_emo_sem_emo,1.16096861800179,1,2,2,1,1560854.1162722,65,B
44,4,21/12/94,21,F,19,Jon polished the coins,Sensible,edin_semantics,sem_emo_sem_emo,1.33801822224632,2,2,1,0,1560856.1980665,29,B
44,4,21/12/94,21,F,20,The onion sliced Liam,Non-sensible,edin_semantics,sem_emo_sem_emo,1.11439629900269,1,1,2,0,1560858.056312,78,B
44,4,21/12/94,21,F,21,The garage tidied Erin,Non-sensible,edin_semantics,sem_emo_sem_emo,1.71418436616659,2,2,1,0,1560860.51441259,77,B
44,4,21/12/94,21,F,22,Phil passed the towels,Sensible,edin_semantics,sem_emo_sem_emo,2.23235421278514,2,2,1,0,1560863.48998579,43,B
44,4,21/12/94,21,F,23,The opera watched Adam,Non-sensible,edin_semantics,sem_emo_sem_emo,3.01977377594449,2,1,1,1,1560867.25355296,108,B
44,4,21/12/94,21,F,24,The carrots grated Tom,Non-sensible,edin_semantics,sem_emo_sem_emo,3.960955981398,1,1,2,0,1560871.95802266,140,B
44,4,21/12/94,21,F,25,Carl sold the sofa,Sensible,edin_semantics,sem_emo_sem_emo,3.34842467913404,1,1,1,1,1560876.05090078,38,B
44,4,21/12/94,21,F,26,John described the pen,Sensible,edin_semantics,sem_emo_sem_emo,1.30194120015949,2,1,1,1,1560878.09737945,42,B
44,4,21/12/94,21,F,27,The button pushed Ian,Non-sensible,edin_semantics,sem_emo_sem_emo,0.844140478642657,1,2,2,1,1560879.6851366,101,B
44,4,21/12/94,21,F,28,Dan whisked the eggs,Sensible,edin_semantics,sem_emo_sem_emo,1.25517676887102,1,1,2,0,1560881.68450927,62,B
44,4,21/12/94,21,F,29,The monitor punched Erin,Non-sensible,edin_semantics,sem_emo_sem_emo,1.45502391317859,1,2,2,1,1560883.88384166,125,B
44,4,21/12/94,21,F,30,Mary visited the museum,Sensible,edin_semantics,sem_emo_sem_emo,5.63119249464944,2,1,2,0,1560890.25842921,16,B
44,4,21/12/94,21,F,31,The hair trimmed Bill,Non-sensible,edin_semantics,sem_emo_sem_emo,2.03210424212739,1,2,2,1,1560893.03403659,107,B
44,4,21/12/94,21,F,32,Tom knitted the scarf,Sensible,edin_semantics,sem_emo_sem_emo,2.16133295791224,1,1,1,1,1560895.93906737,66,B
44,4,21/12/94,21,F,33,Hugh pulled the lever,Sensible,edin_semantics,sem_emo_sem_emo,1.12646409450099,1,2,2,1,1560897.80914333,45,B
44,4,21/12/94,21,F,34,Phil chopped the herbs,Sensible,edin_semantics,sem_emo_sem_emo,1.33773406269029,2,2,1,0,1560899.89082858,27,B
44,4,21/12/94,21,F,35,The box labeled Ian,Non-sensible,edin_semantics,sem_emo_sem_emo,1.06733487965539,2,1,1,1,1560901.70199598,136,B
44,4,21/12/94,21,F,36,Ben chewed the toffee,Sensible,edin_semantics,sem_emo_sem_emo,1.38496161601506,2,2,1,0,1560903.83079429,31,B
44,4,21/12/94,21,F,37,The crate lifted Amy,Non-sensible,edin_semantics,sem_emo_sem_emo,1.22039417992346,2,1,1,1,1560905.79490328,144,B
44,4,21/12/94,21,F,38,Kate lifted the box,Sensible,edin_semantics,sem_emo_sem_emo,1.58480523200706,2,2,1,0,1560908.12365361,69,B
44,4,21/12/94,21,F,39,Matt kicked the bike,Sensible,edin_semantics,sem_emo_sem_emo,1.05546753527597,1,2,2,1,1560909.92307362,39,B
44,4,21/12/94,21,F,40,Ian cancelled the plans,Sensible,edin_semantics,sem_emo_sem_emo,1.52617634297349,2,2,1,0,1560912.19304624,7,B
44,4,21/12/94,21,F,41,The beer drank Jack,Non-sensible,edin_semantics,sem_emo_sem_emo,1.60824870574288,2,2,1,0,1560914.54523234,135,B
44,4,21/12/94,21,F,42,Jon cut the paper,Sensible,edin_semantics,sem_emo_sem_emo,0.93829089961946,2,1,1,1,1560916.22706263,20,B
44,4,21/12/94,21,F,43,The shed built Rose,Non-sensible,edin_semantics,sem_emo_sem_emo,0.902986175613478,1,2,2,1,1560917.87366387,121,B
44,4,21/12/94,21,F,44,Erin posted the card,Sensible,edin_semantics,sem_emo_sem_emo,0.878569953143597,2,1,1,1,1560919.49667508,36,B
44,4,21/12/94,21,F,45,The invite mailed Ian,Non-sensible,edin_semantics,sem_emo_sem_emo,0.938879744848236,1,2,2,1,1560921.17852621,89,B
44,4,21/12/94,21,F,46,The lemon squeezed Jay,Non-sensible,edin_semantics,sem_emo_sem_emo,0.985472910571843,2,1,1,1,1560922.90740957,76,B
44,4,21/12/94,21,F,47,The bath cleaned Jack,Non-sensible,edin_semantics,sem_emo_sem_emo,1.18560004467145,2,1,1,1,1560924.83624495,80,B
44,4,21/12/94,21,F,48,Luke climbed the hill,Sensible,edin_semantics,sem_emo_sem_emo,0.891097022220492,2,1,1,1,1560926.47108758,68,B
44,4,21/12/94,21,F,49,Josh ironed the shirt,Sensible,edin_semantics,sem_emo_sem_emo,1.36224136990495,1,2,2,1,1560928.57634203,55,B
44,4,21/12/94,21,F,50,The wallet carried Leo,Non-sensible,edin_semantics,sem_emo_sem_emo,1.33834022679366,1,1,2,0,1560930.65804075,150,B
44,4,21/12/94,21,F,51,The office entered Joe,Non-sensible,edin_semantics,sem_emo_sem_emo,3.184468859341,2,2,1,0,1560934.58626933,133,B
44,4,21/12/94,21,F,52,The message typed Eve,Non-sensible,edin_semantics,sem_emo_sem_emo,1.58495725435205,1,1,2,0,1560936.91498437,124,B
44,4,21/12/94,21,F,53,Jen fixed the laptop,Sensible,edin_semantics,sem_emo_sem_emo,2.20816730638035,2,2,1,0,1560939.86703263,37,B
44,4,21/12/94,21,F,54,Carl brushed the teeth,Sensible,edin_semantics,sem_emo_sem_emo,1.13827370922081,1,1,2,0,1560941.74886689,72,B
44,4,21/12/94,21,F,55,Mark washed the dishes,Sensible,edin_semantics,sem_emo_sem_emo,1.77317984006368,2,2,1,0,1560944.26571857,57,B
44,4,21/12/94,21,F,56,Erin crushed the garlic,Sensible,edin_semantics,sem_emo_sem_emo,0.820727473823354,2,1,1,1,1560945.82997196,6,B
44,4,21/12/94,21,F,57,Jack mixed the fruits,Sensible,edin_semantics,sem_emo_sem_emo,2.00818866631016,1,1,2,0,1560948.58208968,8,B
44,4,21/12/94,21,F,58,Matt pushed the trolley,Sensible,edin_semantics,sem_emo_sem_emo,0.891198690980673,2,1,1,1,1560950.21688965,26,B
44,4,21/12/94,21,F,59,Lily dented the lorry,Sensible,edin_semantics,sem_emo_sem_emo,1.44408377516083,2,2,1,0,1560952.40453173,71,B
44,4,21/12/94,21,F,60,The plate licked Jane,Non-sensible,edin_semantics,sem_emo_sem_emo,1.12597082462162,1,1,2,0,1560954.2745025,96,B
44,4,21/12/94,21,F,61,The shoes counted Lucy,Non-sensible,edin_semantics,sem_emo_sem_emo,0.973452581791207,2,2,1,0,1560955.99161345,123,B
44,4,21/12/94,21,F,62,Jeff watered the garden,Sensible,edin_semantics,sem_emo_sem_emo,1.79645268968306,1,1,2,0,1560958.53203529,54,B
44,4,21/12/94,21,F,63,The donut iced Joe,Non-sensible,edin_semantics,sem_emo_sem_emo,1.14977158186957,1,2,2,1,1560960.4255993,119,B
44,4,21/12/94,21,F,64,The stairs climbed Ben,Non-sensible,edin_semantics,sem_emo_sem_emo,1.79694948764518,2,2,1,0,1560962.96600254,143,B
44,4,21/12/94,21,F,65,The blanket stroked Ryan,Non-sensible,edin_semantics,sem_emo_sem_emo,0.949599546846002,2,1,1,1,1560964.65960844,116,B
44,4,21/12/94,21,F,66,Matt drank the juice,Sensible,edin_semantics,sem_emo_sem_emo,0.843776459572837,2,1,1,1,1560966.24736174,60,B
44,4,21/12/94,21,F,67,Josh squeezed the ball,Sensible,edin_semantics,sem_emo_sem_emo,0.997150067007169,1,2,2,1,1560967.98804125,1,B
44,4,21/12/94,21,F,68,Liz labeled the jar,Sensible,edin_semantics,sem_emo_sem_emo,1.91451964853331,2,2,1,0,1560970.64604319,61,B
44,4,21/12/94,21,F,69,Max lent the bucket,Sensible,edin_semantics,sem_emo_sem_emo,0.961102230707183,2,2,1,0,1560972.3514741,19,B
44,4,21/12/94,21,F,70,The internet searched Max,Non-sensible,edin_semantics,sem_emo_sem_emo,1.20860990229994,1,2,2,1,1560974.30380972,85,B
44,4,21/12/94,21,F,71,Jon trimmed the bushes,Sensible,edin_semantics,sem_emo_sem_emo,1.00847956095822,2,1,1,1,1560976.05620648,32,B
44,4,21/12/94,21,F,72,The salt passed Leo,Non-sensible,edin_semantics,sem_emo_sem_emo,3.513977693161,1,1,2,0,1560980.31373863,118,B
44,4,21/12/94,21,F,73,The kettle carried John,Non-sensible,edin_semantics,sem_emo_sem_emo,1.43171033193357,1,2,1,0,1560982.48956949,105,B
44,4,21/12/94,21,F,74,The cream whisked Tom,Non-sensible,edin_semantics,sem_emo_sem_emo,1.34926946018822,1,2,2,1,1560984.5830419,137,B
44,4,21/12/94,21,F,75,The perfume sniffed Tim,Non-sensible,edin_semantics,sem_emo_sem_emo,1.84376779990271,2,2,1,0,1560987.17052645,93,B
44,4,21/12/94,21,F,76,Jake dusted the shelf,Sensible,edin_semantics,sem_emo_sem_emo,1.91393882175907,1,2,2,1,1560989.82855372,47,B
44,4,21/12/94,21,F,77,Rob mailed the parcel,Sensible,edin_semantics,sem_emo_sem_emo,0.996692076325417,2,1,1,1,1560991.56920982,14,B
44,4,21/12/94,21,F,78,The nuts mixed Liam,Non-sensible,edin_semantics,sem_emo_sem_emo,1.8788877883926,2,2,1,0,1560994.19192596,83,B
44,4,21/12/94,21,F,79,The radio got Ben,Non-sensible,edin_semantics,sem_emo_sem_emo,1.4317857013084,1,1,2,0,1560996.36775073,88,B
44,4,21/12/94,21,F,80,The dessert served Fred,Non-sensible,edin_semantics,sem_emo_sem_emo,1.27950030285865,1,2,2,1,1560998.39066501,145,B
44,4,21/12/94,21,F,81,Will licked the spoon,Sensible,edin_semantics,sem_emo_sem_emo,1.92628756933846,2,2,1,0,1561001.06049421,21,B
44,4,21/12/94,21,F,82,Matt offered the money,Sensible,edin_semantics,sem_emo_sem_emo,0.973206588299945,1,2,2,1,1561002.77759233,9,B
44,4,21/12/94,21,F,83,Liz sliced the tomato,Sensible,edin_semantics,sem_emo_sem_emo,2.07900209375657,2,2,1,0,1561005.60026338,3,B
44,4,21/12/94,21,F,84,The radio fixed Luke,Non-sensible,edin_semantics,sem_emo_sem_emo,2.1023984211497,1,1,2,0,1561008.44655462,112,B
44,4,21/12/94,21,F,85,Joe wore the jumper,Sensible,edin_semantics,sem_emo_sem_emo,1.66744463052601,2,2,1,0,1561010.85752772,25,B
44,4,21/12/94,21,F,86,Jen weighed the flour,Sensible,edin_semantics,sem_emo_sem_emo,0.961537129478529,2,1,1,1,1561012.56296056,64,B
44,4,21/12/94,21,F,87,Jen searched the room,Sensible,edin_semantics,sem_emo_sem_emo,2.2790339733474,1,1,2,0,1561015.58555316,10,B
44,4,21/12/94,21,F,88,The fat chewed Adam,Non-sensible,edin_semantics,sem_emo_sem_emo,1.57281344779767,2,1,1,1,1561017.90248938,106,B
44,4,21/12/94,21,F,89,The desk wiped Lucy,Non-sensible,edin_semantics,sem_emo_sem_emo,3.67833056673408,2,2,1,0,1561022.32467652,115,B
44,4,21/12/94,21,F,90,Amy measured the thread,Sensible,edin_semantics,sem_emo_sem_emo,0.914648899342865,1,2,2,1,1561023.98302067,51,B
44,4,21/12/94,21,F,91,The carrots chopped Fred,Non-sensible,edin_semantics,sem_emo_sem_emo,2.73767466493882,1,1,2,0,1561027.46429918,102,B
44,4,21/12/94,21,F,92,The trousers ironed Eve,Non-sensible,edin_semantics,sem_emo_sem_emo,1.05505091766827,2,1,1,1,1561029.26377403,130,B
44,4,21/12/94,21,F,93,The hotline dialed Hugh,Non-sensible,edin_semantics,sem_emo_sem_emo,1.03199936635792,2,1,1,1,1561031.03969925,138,B
44,4,21/12/94,21,F,94,The candy sucked Sam,Non-sensible,edin_semantics,sem_emo_sem_emo,1.37280273553915,1,2,2,1,1561033.15674343,87,B
44,4,21/12/94,21,F,95,The portrait painted Jay,Non-sensible,edin_semantics,sem_emo_sem_emo,1.1617752329912,2,1,1,1,1561035.0620465,110,B
44,4,21/12/94,21,F,96,The ticket took Tim,Non-sensible,edin_semantics,sem_emo_sem_emo,1.22064787056297,2,1,1,1,1561037.02617185,128,B
44,4,21/12/94,21,F,97,The hair brushed Dan,Non-sensible,edin_semantics,sem_emo_sem_emo,2.00846063857898,2,2,1,0,1561039.77825366,147,B
44,4,21/12/94,21,F,98,The door kicked Max,Non-sensible,edin_semantics,sem_emo_sem_emo,0.984917741268873,1,1,1,1,1561041.50718513,114,B
44,4,21/12/94,21,F,99,The sweets offered Tom,Non-sensible,edin_semantics,sem_emo_sem_emo,1.59714499954134,1,1,2,0,1561043.84766457,84,B
44,4,21/12/94,21,F,100,The curtains measured Rob,Non-sensible,edin_semantics,sem_emo_sem_emo,2.29072331730276,1,1,2,0,1561046.88203182,126,B
44,4,21/12/94,21,F,101,The bed sold Jay,Non-sensible,edin_semantics,sem_emo_sem_emo,2.39651272888295,2,2,1,0,1561050.02223852,113,B
44,4,21/12/94,21,F,102,Kate served the dish,Sensible,edin_semantics,sem_emo_sem_emo,1.16182334115729,2,1,1,1,1561051.92757014,70,B
44,4,21/12/94,21,F,103,Kate built the house,Sensible,edin_semantics,sem_emo_sem_emo,1.3502816578839,2,1,1,1,1561054.02106757,46,B
44,4,21/12/94,21,F,104,The problem solved Phil,Non-sensible,edin_semantics,sem_emo_sem_emo,1.1147163794376,1,2,2,1,1561055.87935219,109,B
44,4,21/12/94,21,F,105,Lily got the kettle,Sensible,edin_semantics,sem_emo_sem_emo,1.13800654769875,1,2,2,1,1561057.76109857,13,B
44,4,21/12/94,21,F,106,Bill counted the sheets,Sensible,edin_semantics,sem_emo_sem_emo,1.19743852410465,2,1,1,1,1561059.70171503,48,B
44,4,21/12/94,21,F,107,The pillow hugged Kate,Non-sensible,edin_semantics,sem_emo_sem_emo,1.91470887442119,1,1,1,1,1561062.35975706,86,B
44,4,21/12/94,21,F,108,Dan carried the folder,Sensible,edin_semantics,sem_emo_sem_emo,5.73721635364927,1,1,2,0,1561068.84013178,30,B
44,4,21/12/94,21,F,109,Tim ate the ham,Sensible,edin_semantics,sem_emo_sem_emo,1.7609504009597,2,2,1,0,1561071.34527134,67,B
44,4,21/12/94,21,F,110,Phil typed the letter,Sensible,edin_semantics,sem_emo_sem_emo,4.00778263271786,2,2,1,0,1561076.09677809,49,B
44,4,21/12/94,21,F,111,The rules taught Josh,Non-sensible,edin_semantics,sem_emo_sem_emo,2.13781186984852,2,1,1,1,1561078.97828361,90,B
44,4,21/12/94,21,F,112,The bowl dented Ian,Non-sensible,edin_semantics,sem_emo_sem_emo,5.04288818873465,1,1,1,1,1561084.76482825,146,B
44,4,21/12/94,21,F,113,The rope pulled Emma,Non-sensible,edin_semantics,sem_emo_sem_emo,1.77269843686372,1,1,2,0,1561087.28166453,120,B
44,4,21/12/94,21,F,114,The poster read Luke,Non-sensible,edin_semantics,sem_emo_sem_emo,1.17323141219094,1,2,2,1,1561089.19874065,79,B
44,4,21/12/94,21,F,115,Ella watched the movie,Sensible,edin_semantics,sem_emo_sem_emo,1.42037698905915,1,2,2,1,1561091.36280841,33,B
44,4,21/12/94,21,F,116,Sam tidied the room,Sensible,edin_semantics,sem_emo_sem_emo,1.82059950591065,1,1,2,0,1561093.92672792,2,B
44,4,21/12/94,21,F,117,The hedge jumped Sara,Non-sensible,edin_semantics,sem_emo_sem_emo,1.10327078402042,2,1,1,1,1561095.77325489,92,B
44,4,21/12/94,21,F,118,Leah sucked the lolly,Sensible,edin_semantics,sem_emo_sem_emo,2.0323534430936,1,1,1,1,1561098.54887703,12,B
44,4,21/12/94,21,F,119,Mike paid the bill,Sensible,edin_semantics,sem_emo_sem_emo,4.46625430393033,2,2,2,1,1561103.75907803,59,B
44,4,21/12/94,21,F,120,Will mashed the potatoes,Sensible,edin_semantics,sem_emo_sem_emo,5.90091912425123,2,1,1,1,1561110.4041504,28,B
44,4,21/12/94,21,F,121,The report wrote Alex,Non-sensible,edin_semantics,sem_emo_sem_emo,8.5470867564436,2,2,1,0,1561119.69549495,149,B
44,4,21/12/94,21,F,122,The debt paid Zoe,Non-sensible,edin_semantics,sem_emo_sem_emo,2.54894213145599,2,1,1,1,1561122.98860732,134,B
44,4,21/12/94,21,F,123,The hospital visited Tom,Non-sensible,edin_semantics,sem_emo_sem_emo,2.66635417682119,2,2,2,1,1561126.3994313,91,B
44,4,21/12/94,21,F,124,The dress wore Kate,Non-sensible,edin_semantics,sem_emo_sem_emo,3.20751912775449,2,1,1,1,1561130.35110078,100,B
44,4,21/12/94,21,F,125,The gum swallowed Owen,Non-sensible,edin_semantics,sem_emo_sem_emo,1.56024949601851,1,2,2,1,1561132.65632681,97,B
44,4,21/12/94,21,F,126,Beth wiped the table,Sensible,edin_semantics,sem_emo_sem_emo,1.17235231399536,2,1,1,1,1561134.57341801,40,B
44,4,21/12/94,21,F,127,The pan washed Beth,Non-sensible,edin_semantics,sem_emo_sem_emo,2.79568039183505,1,1,2,0,1561138.11352554,132,B
44,4,21/12/94,21,F,128,Tom dialed the number,Sensible,edin_semantics,sem_emo_sem_emo,4.26603833027184,2,2,2,1,1561143.12376009,63,B
44,4,21/12/94,21,F,129,The party cancelled Phil,Non-sensible,edin_semantics,sem_emo_sem_emo,1.0552815166302,2,1,1,1,1561144.92328497,82,B
44,4,21/12/94,21,F,130,The ice crushed Josh,Non-sensible,edin_semantics,sem_emo_sem_emo,1.29141415166669,1,2,2,1,1561146.9579149,81,B
44,4,21/12/94,21,F,131,The steak ate Mike,Non-sensible,edin_semantics,sem_emo_sem_emo,1.80867443163879,1,1,2,0,1561149.51009536,142,B
44,4,21/12/94,21,F,132,The trophy polished Anna,Non-sensible,edin_semantics,sem_emo_sem_emo,1.71469495515339,2,1,1,1,1561151.96816452,104,B
44,4,21/12/94,21,F,133,The church described Erin,Non-sensible,edin_semantics,sem_emo_sem_emo,1.16200903919525,1,2,2,1,1561153.87347593,117,B
44,4,21/12/94,21,F,134,Mary iced the cake,Sensible,edin_semantics,sem_emo_sem_emo,1.86778247891925,2,1,2,0,1561156.48449471,44,B
44,4,21/12/94,21,F,135,Ryan carried the gun,Sensible,edin_semantics,sem_emo_sem_emo,4.03176171146333,1,2,2,1,1561161.25950908,75,B
44,4,21/12/94,21,F,136,Joe solved the puzzle,Sensible,edin_semantics,sem_emo_sem_emo,3.7721933000721,2,1,1,1,1561165.77579019,34,B
44,4,21/12/94,21,F,137,The sugar weighed Liz,Non-sensible,edin_semantics,sem_emo_sem_emo,1.7840898304712,1,2,2,1,1561168.30443866,139,B
44,4,21/12/94,21,F,138,The gift posted Jack,Non-sensible,edin_semantics,sem_emo_sem_emo,0.995961472392082,1,2,2,1,1561170.04510822,111,B
44,4,21/12/94,21,F,139,Tim pulled the handle,Sensible,edin_semantics,sem_emo_sem_emo,2.98452646075748,2,2,1,0,1561173.77336329,73,B
44,4,21/12/94,21,F,140,Leo stored the wine,Sensible,edin_semantics,sem_emo_sem_emo,1.52648199070245,1,1,2,0,1561176.0433481,52,B
44,4,21/12/94,21,F,141,The report filed Ian,Non-sensible,edin_semantics,sem_emo_sem_emo,2.00860560452566,2,2,1,0,1561178.79542959,99,B
44,4,21/12/94,21,F,142,The rose kissed Hugh,Non-sensible,edin_semantics,sem_emo_sem_emo,3.3262361898087,1,1,1,1,1561182.86478052,98,B
44,4,21/12/94,21,F,143,The rope pulled Andy,Non-sensible,edin_semantics,sem_emo_sem_emo,1.20787063869648,1,1,2,0,1561184.8171325,148,B
44,4,21/12/94,21,F,144,Tim cleaned the floor,Sensible,edin_semantics,sem_emo_sem_emo,1.17290299315937,1,2,2,1,1561186.73422466,5,B
44,4,21/12/94,21,F,145,Luke swallowed the pill,Sensible,edin_semantics,sem_emo_sem_emo,1.4551073005423,2,1,1,1,1561188.93358174,22,B
44,4,21/12/94,21,F,146,Eve taught the lesson,Sensible,edin_semantics,sem_emo_sem_emo,1.12674889527261,1,2,2,1,1561190.80357175,15,B
44,4,21/12/94,21,F,147,The rice stored Fred,Non-sensible,edin_semantics,sem_emo_sem_emo,2.43231970304623,2,2,1,0,1561193.97912871,127,B
44,4,21/12/94,21,F,148,Beth took the photo,Sensible,edin_semantics,sem_emo_sem_emo,1.25624188571237,2,2,1,0,1561195.97854436,53,B
44,4,21/12/94,21,F,149,The ribbon cut Lucy,Non-sensible,edin_semantics,sem_emo_sem_emo,0.985433141002432,2,2,1,0,1561197.70740623,95,B
44,4,21/12/94,21,F,150,Lara filed the papers,Sensible,edin_semantics,sem_emo_sem_emo,1.32648603175767,2,1,1,1,1561199.77736301,24,B
44,4,21/12/94,21,F,151,Rob measured the curtains,Sensible,edin_semantics,sem_emo_sem_emo,0.873317814664915,2,1,1,1,1561209.56267447,126,A
44,4,21/12/94,21,F,152,The folder carried Dan,Non-sensible,edin_semantics,sem_emo_sem_emo,1.05563206551597,2,1,1,1,1561211.36212559,30,A
44,4,21/12/94,21,F,153,Fred lent the car,Sensible,edin_semantics,sem_emo_sem_emo,1.34952411334962,2,1,1,1,1561213.45562527,94,A
44,4,21/12/94,21,F,154,The garlic crushed Erin,Non-sensible,edin_semantics,sem_emo_sem_emo,0.796952374046668,2,1,1,1,1561214.99632549,6,A
44,4,21/12/94,21,F,155,The ball squeezed Josh,Non-sensible,edin_semantics,sem_emo_sem_emo,1.25593816209584,1,2,2,1,1561216.99576455,1,A
44,4,21/12/94,21,F,156,The handle pulled Tim,Non-sensible,edin_semantics,sem_emo_sem_emo,1.47869157092646,1,2,2,1,1561219.21859237,73,A
44,4,21/12/94,21,F,157,The jumper wore Joe,Non-sensible,edin_semantics,sem_emo_sem_emo,1.13597445515916,2,2,1,0,1561221.10039968,25,A
44,4,21/12/94,21,F,158,The shirt ironed Josh,Non-sensible,edin_semantics,sem_emo_sem_emo,0.879378813551739,1,2,2,1,1561222.72344136,55,A
44,4,21/12/94,21,F,159,Tom whisked the cream,Sensible,edin_semantics,sem_emo_sem_emo,3.05498645268381,2,2,1,0,1561226.52232287,137,A
44,4,21/12/94,21,F,160,Ian dented the bowl,Sensible,edin_semantics,sem_emo_sem_emo,0.913854151265696,2,1,1,1,1561228.18062276,146,A
44,4,21/12/94,21,F,161,The hill climbed Luke,Non-sensible,edin_semantics,sem_emo_sem_emo,0.819973456906155,2,1,1,1,1561229.744863,68,A
44,4,21/12/94,21,F,162,The potatoes mashed Will,Non-sensible,edin_semantics,sem_emo_sem_emo,0.760470601264387,2,1,1,1,1561231.25030116,28,A
44,4,21/12/94,21,F,163,Tom visited the hospital,Sensible,edin_semantics,sem_emo_sem_emo,0.913441382348537,1,2,2,1,1561232.90863376,91,A
44,4,21/12/94,21,F,164,The scarf knitted Tom,Non-sensible,edin_semantics,sem_emo_sem_emo,0.842855988303199,2,1,1,1,1561234.49639862,66,A
44,4,21/12/94,21,F,165,The pill swallowed Luke,Non-sensible,edin_semantics,sem_emo_sem_emo,0.842767789959908,2,1,1,1,1561236.08414711,22,A
44,4,21/12/94,21,F,166,The house built Kate,Non-sensible,edin_semantics,sem_emo_sem_emo,1.3958902079612,1,1,2,0,1561238.2247406,46,A
44,4,21/12/94,21,F,167,Beth washed the pan,Sensible,edin_semantics,sem_emo_sem_emo,1.46701794234104,1,1,2,0,1561240.43578125,132,A
44,4,21/12/94,21,F,168,Josh scrubbed the pot,Sensible,edin_semantics,sem_emo_sem_emo,0.948783310130239,1,2,2,1,1561242.12937561,131,A
44,4,21/12/94,21,F,169,The sheets counted Bill,Non-sensible,edin_semantics,sem_emo_sem_emo,0.725088583305478,2,1,1,1,1561243.59953149,48,A
44,4,21/12/94,21,F,170,Tom offered the sweets,Sensible,edin_semantics,sem_emo_sem_emo,1.01938570244238,2,1,1,1,1561245.3637215,84,A
44,4,21/12/94,21,F,171,Erin tidied the garage,Sensible,edin_semantics,sem_emo_sem_emo,2.2543897179421,2,2,2,1,1561248.36280809,77,A
44,4,21/12/94,21,F,172,The lolly sucked Leah,Non-sensible,edin_semantics,sem_emo_sem_emo,1.05446495930664,2,1,1,1,1561250.16226113,12,A
44,4,21/12/94,21,F,173,The fur stroked Rob,Non-sensible,edin_semantics,sem_emo_sem_emo,1.05453423503786,1,2,2,1,1561251.96171417,41,A
44,4,21/12/94,21,F,174,Max searched the internet,Sensible,edin_semantics,sem_emo_sem_emo,1.83090621838346,1,2,2,1,1561254.53745548,85,A
44,4,21/12/94,21,F,175,The wine stored Leo,Non-sensible,edin_semantics,sem_emo_sem_emo,0.890222414163873,2,1,1,1,1561256.17222338,52,A
44,4,21/12/94,21,F,176,Fred stored the rice,Sensible,edin_semantics,sem_emo_sem_emo,0.948463550535962,1,2,2,1,1561257.86585462,127,A
44,4,21/12/94,21,F,177,The milk sniffed Phil,Non-sensible,edin_semantics,sem_emo_sem_emo,1.85419382108375,1,1,2,0,1561260.4650811,18,A
44,4,21/12/94,21,F,178,The paper cut Jon,Non-sensible,edin_semantics,sem_emo_sem_emo,1.08978219144046,2,1,1,1,1561262.29979621,20,A
44,4,21/12/94,21,F,179,Max kicked the door,Sensible,edin_semantics,sem_emo_sem_emo,0.948631929466501,2,1,1,1,1561263.99342328,114,A
44,4,21/12/94,21,F,180,The herbs chopped Phil,Non-sensible,edin_semantics,sem_emo_sem_emo,0.913924389053136,1,2,2,1,1561265.65178283,27,A
44,4,21/12/94,21,F,181,Lucy counted the shoes,Sensible,edin_semantics,sem_emo_sem_emo,2.40714304964058,2,2,1,0,1561268.80375135,123,A
44,4,21/12/94,21,F,182,Andy pulled the rope,Sensible,edin_semantics,sem_emo_sem_emo,1.00763862859458,2,1,1,1,1561270.55619557,148,A
44,4,21/12/94,21,F,183,Eve ironed the trousers,Sensible,edin_semantics,sem_emo_sem_emo,0.984553401358426,2,1,1,1,1561272.28506771,130,A
44,4,21/12/94,21,F,184,The toffee chewed Ben,Non-sensible,edin_semantics,sem_emo_sem_emo,1.32520089996979,2,2,1,0,1561274.35500942,31,A
44,4,21/12/94,21,F,185,Hugh kissed the rose,Sensible,edin_semantics,sem_emo_sem_emo,2.14872121834196,1,1,2,0,1561277.24826361,98,A
44,4,21/12/94,21,F,186,Ian pushed the button,Sensible,edin_semantics,sem_emo_sem_emo,1.06698689656332,2,2,1,0,1561279.05947559,101,A
44,4,21/12/94,21,F,187,The teeth brushed Carl,Non-sensible,edin_semantics,sem_emo_sem_emo,1.71410931739956,2,1,1,1,1561281.51773527,72,A
44,4,21/12/94,21,F,188,Mike ate the steak,Sensible,edin_semantics,sem_emo_sem_emo,1.24177829921246,2,1,1,1,1561283.50520884,142,A
44,4,21/12/94,21,F,189,Lucy wiped the desk,Sensible,edin_semantics,sem_emo_sem_emo,1.6791044678539,2,2,1,0,1561285.92812146,115,A
44,4,21/12/94,21,F,190,Luke fixed the radio,Sensible,edin_semantics,sem_emo_sem_emo,1.18386365729384,2,1,1,1,1561287.85689398,112,A
44,4,21/12/94,21,F,191,Jay painted the portrait,Sensible,edin_semantics,sem_emo_sem_emo,1.21982906828634,1,1,2,0,1561289.82097315,110,A
44,4,21/12/94,21,F,192,The coins polished Jon,Non-sensible,edin_semantics,sem_emo_sem_emo,1.47879901272245,1,2,2,1,1561292.04385067,29,A
44,4,21/12/94,21,F,193,Alex wrote the report,Sensible,edin_semantics,sem_emo_sem_emo,0.984419981250539,1,2,2,1,1561293.77272249,149,A
44,4,21/12/94,21,F,194,The wall punched Jane,Non-sensible,edin_semantics,sem_emo_sem_emo,1.24329659575596,1,1,2,0,1561295.7603824,50,A
44,4,21/12/94,21,F,195,The puzzle solved Joe,Non-sensible,edin_semantics,sem_emo_sem_emo,3.78364595142193,1,1,2,0,1561300.28846095,34,A
44,4,21/12/94,21,F,196,The money offered Matt,Non-sensible,edin_semantics,sem_emo_sem_emo,5.08937711990438,2,2,1,0,1561306.1220205,9,A
44,4,21/12/94,21,F,197,The dishes washed Mark,Non-sensible,edin_semantics,sem_emo_sem_emo,1.33637067489326,1,2,2,1,1561308.20373269,57,A
44,4,21/12/94,21,F,198,The lorry dented Lily,Non-sensible,edin_semantics,sem_emo_sem_emo,1.12539031822234,1,2,2,1,1561310.07375861,71,A
44,4,21/12/94,21,F,199,Emma pulled the rope,Sensible,edin_semantics,sem_emo_sem_emo,1.12568826880306,1,1,2,0,1561311.94378775,120,A
44,4,21/12/94,21,F,200,Bill trimmed the hair,Sensible,edin_semantics,sem_emo_sem_emo,1.56025142013095,2,2,1,0,1561314.24895156,107,A
44,4,21/12/94,21,F,201,The table wiped Beth,Non-sensible,edin_semantics,sem_emo_sem_emo,2.16043622000143,1,1,2,0,1561317.15397913,40,A
44,4,21/12/94,21,F,202,Joe iced the donut,Sensible,edin_semantics,sem_emo_sem_emo,3.60548761230893,2,2,1,0,1561321.50559371,119,A
44,4,21/12/94,21,F,203,The kettle got Lily,Non-sensible,edin_semantics,sem_emo_sem_emo,4.30120770959184,2,2,1,0,1561326.55117179,13,A
44,4,21/12/94,21,F,204,The towels passed Phil,Non-sensible,edin_semantics,sem_emo_sem_emo,2.60720186983235,2,2,1,0,1561329.9031058,43,A
44,4,21/12/94,21,F,205,The dish served Kate,Non-sensible,edin_semantics,sem_emo_sem_emo,3.78285088250414,1,1,2,0,1561334.43117216,70,A
44,4,21/12/94,21,F,206,Ben got the radio,Sensible,edin_semantics,sem_emo_sem_emo,1.74831621116027,1,1,2,0,1561336.92450211,88,A
44,4,21/12/94,21,F,207,Joe entered the office,Sensible,edin_semantics,sem_emo_sem_emo,1.37252531130798,1,2,2,1,1561339.04153635,133,A
44,4,21/12/94,21,F,208,Ryan knitted the socks,Sensible,edin_semantics,sem_emo_sem_emo,0.865830887341872,1,2,2,1,1561340.65282004,141,A
44,4,21/12/94,21,F,209,Luke watered the plants,Sensible,edin_semantics,sem_emo_sem_emo,1.57210497348569,1,2,2,1,1561342.9697553,129,A
44,4,21/12/94,21,F,210,The eggs whisked Dan,Non-sensible,edin_semantics,sem_emo_sem_emo,2.03069531172514,1,1,2,0,1561345.74541368,62,A
44,4,21/12/94,21,F,211,The papers filed Lara,Non-sensible,edin_semantics,sem_emo_sem_emo,2.1130454193335,1,1,2,0,1561348.6033949,24,A
44,4,21/12/94,21,F,212,Ian filed the report,Sensible,edin_semantics,sem_emo_sem_emo,2.37163915717974,2,2,2,1,1561351.7200834,99,A
44,4,21/12/94,21,F,213,Jay sold the bed,Sensible,edin_semantics,sem_emo_sem_emo,1.77161151100881,1,2,2,1,1561354.23696042,113,A
44,4,21/12/94,21,F,214,The book read Sean,Non-sensible,edin_semantics,sem_emo_sem_emo,2.67762658256106,1,1,1,1,1561357.65952345,4,A
44,4,21/12/94,21,F,215,Josh taught the rules,Sensible,edin_semantics,sem_emo_sem_emo,1.11318140523508,2,1,1,1,1561359.5177513,90,A
44,4,21/12/94,21,F,216,Josh crushed the ice,Sensible,edin_semantics,sem_emo_sem_emo,0.90191175788641,1,2,2,1,1561361.16430348,81,A
44,4,21/12/94,21,F,217,Jane licked the plate,Sensible,edin_semantics,sem_emo_sem_emo,0.90220169047825,2,1,1,1,1561362.81087266,96,A
44,4,21/12/94,21,F,218,The bike kicked Matt,Non-sensible,edin_semantics,sem_emo_sem_emo,1.67842229292728,1,2,2,1,1561365.23367206,39,A
44,4,21/12/94,21,F,219,Luke read the poster,Sensible,edin_semantics,sem_emo_sem_emo,1.14863751013763,1,2,2,1,1561367.12722164,79,A
44,4,21/12/94,21,F,220,The garden watered Jeff,Non-sensible,edin_semantics,sem_emo_sem_emo,1.53690833272412,2,1,1,1,1561369.40908566,54,A
44,4,21/12/94,21,F,221,The gun carried Ryan,Non-sensible,edin_semantics,sem_emo_sem_emo,1.85423872200772,1,2,2,1,1561372.00814633,75,A
44,4,21/12/94,21,F,222,The floor cleaned Tim,Non-sensible,edin_semantics,sem_emo_sem_emo,1.76007418939844,2,2,1,0,1561374.51328461,5,A
44,4,21/12/94,21,F,223,Amy lifted the crate,Sensible,edin_semantics,sem_emo_sem_emo,1.61936876829714,1,1,2,0,1561376.87724922,144,A
44,4,21/12/94,21,F,224,Ian labeled the box,Sensible,edin_semantics,sem_emo_sem_emo,2.91274701966904,1,1,2,0,1561380.5349808,136,A
44,4,21/12/94,21,F,225,Kate hugged the pillow,Sensible,edin_semantics,sem_emo_sem_emo,1.98399053490721,2,1,1,1,1561383.26359603,86,A
44,4,21/12/94,21,F,226,Erin described the church,Sensible,edin_semantics,sem_emo_sem_emo,1.20763907791115,1,2,2,1,1561385.21595347,117,A
44,4,21/12/94,21,F,227,The thread measured Amy,Non-sensible,edin_semantics,sem_emo_sem_emo,1.05457689100876,1,2,2,1,1561387.01542126,51,A
44,4,21/12/94,21,F,228,The sofa sold Carl,Non-sensible,edin_semantics,sem_emo_sem_emo,1.23086317745037,2,1,1,1,1561388.99128759,38,A
44,4,21/12/94,21,F,229,Ian mailed the invite,Sensible,edin_semantics,sem_emo_sem_emo,0.913505206117406,1,2,2,1,1561390.64958877,89,A
44,4,21/12/94,21,F,230,Tom grated the carrots,Sensible,edin_semantics,sem_emo_sem_emo,1.51311719696969,1,1,1,1,1561392.90776589,140,A
44,4,21/12/94,21,F,231,The fence jumped Jon,Non-sensible,edin_semantics,sem_emo_sem_emo,1.70083400467411,1,2,2,1,1561395.35406649,17,A
44,4,21/12/94,21,F,232,The juice drank Matt,Non-sensible,edin_semantics,sem_emo_sem_emo,2.01901174080558,1,1,2,0,1561398.1179422,60,A
44,4,21/12/94,21,F,233,The movie watched Ella,Non-sensible,edin_semantics,sem_emo_sem_emo,2.11329911020584,1,2,2,1,1561400.97590899,33,A
44,4,21/12/94,21,F,234,Ryan stroked the blanket,Sensible,edin_semantics,sem_emo_sem_emo,1.53618735028431,1,1,2,0,1561403.2575825,116,A
44,4,21/12/94,21,F,235,Ella mashed the turnip,Sensible,edin_semantics,sem_emo_sem_emo,1.78410618705675,2,2,1,0,1561405.78624861,103,A
44,4,21/12/94,21,F,236,Leo carried the wallet,Sensible,edin_semantics,sem_emo_sem_emo,1.39618110260926,2,1,1,1,1561407.92681708,150,A
44,4,21/12/94,21,F,237,Leo passed the salt,Sensible,edin_semantics,sem_emo_sem_emo,1.33657401218079,1,1,1,1,1561410.00849271,118,A
44,4,21/12/94,21,F,238,Liam mixed the nuts,Sensible,edin_semantics,sem_emo_sem_emo,1.12505259830505,2,2,1,0,1561411.87850613,83,A
44,4,21/12/94,21,F,239,Tim sniffed the perfume,Sensible,edin_semantics,sem_emo_sem_emo,3.27785467961803,2,2,2,1,1561415.90089892,93,A
44,4,21/12/94,21,F,240,John carried the kettle,Sensible,edin_semantics,sem_emo_sem_emo,1.40678576566279,1,2,2,1,1561418.05321671,105,A
44,4,21/12/94,21,F,241,The cheese grated Andy,Non-sensible,edin_semantics,sem_emo_sem_emo,1.06669952976517,1,2,2,1,1561419.86441715,65,A
44,4,21/12/94,21,F,242,Tim took the ticket,Sensible,edin_semantics,sem_emo_sem_emo,1.87725723930635,2,1,2,0,1561422.4871583,128,A
44,4,21/12/94,21,F,243,The letter typed Phil,Non-sensible,edin_semantics,sem_emo_sem_emo,1.06652634032071,1,2,2,1,1561424.29837606,49,A
44,4,21/12/94,21,F,244,Eve typed the message,Sensible,edin_semantics,sem_emo_sem_emo,1.04300845926628,1,1,1,1,1561426.08605124,124,A
44,4,21/12/94,21,F,245,Ben climbed the stairs,Sensible,edin_semantics,sem_emo_sem_emo,2.1720120285172,1,2,2,1,1561429.00283326,143,A
44,4,21/12/94,21,F,246,Jack posted the gift,Sensible,edin_semantics,sem_emo_sem_emo,4.04177720891312,2,2,1,0,1561433.78965596,111,A
44,4,21/12/94,21,F,247,The tree hugged Amy,Non-sensible,edin_semantics,sem_emo_sem_emo,1.07820285530761,1,2,2,1,1561435.61259224,11,A
44,4,21/12/94,21,F,248,The number dialed Tom,Non-sensible,edin_semantics,sem_emo_sem_emo,1.49002683791332,2,2,1,0,1561437.84724186,63,A
44,4,21/12/94,21,F,249,The bill paid Mike,Non-sensible,edin_semantics,sem_emo_sem_emo,1.64225995913148,1,2,2,1,1561440.23474648,59,A
44,4,21/12/94,21,F,250,The picture painted Ryan,Non-sensible,edin_semantics,sem_emo_sem_emo,0.866643595974892,1,2,2,1,1561441.84603594,35,A
44,4,21/12/94,21,F,251,Jay squeezed the lemon,Sensible,edin_semantics,sem_emo_sem_emo,2.16044712439179,1,1,1,1,1561444.75104908,76,A
44,4,21/12/94,21,F,252,The room entered Ryan,Non-sensible,edin_semantics,sem_emo_sem_emo,1.03156446758658,2,1,1,1,1561446.52696853,58,A
44,4,21/12/94,21,F,253,Zoe paid the debt,Sensible,edin_semantics,sem_emo_sem_emo,6.14763621683232,1,1,2,0,1561453.41903573,134,A
44,4,21/12/94,21,F,254,Lucy cut the ribbon,Sensible,edin_semantics,sem_emo_sem_emo,2.99510225909762,1,2,2,1,1561457.15912351,95,A
44,4,21/12/94,21,F,255,Alex dusted the house,Sensible,edin_semantics,sem_emo_sem_emo,3.90006055217236,1,1,1,1,1561461.80477285,122,A
44,4,21/12/94,21,F,256,Adam watched the opera,Sensible,edin_semantics,sem_emo_sem_emo,3.43021576874889,1,1,1,1,1561465.98001134,108,A
44,4,21/12/94,21,F,257,The plans cancelled Ian,Non-sensible,edin_semantics,sem_emo_sem_emo,2.66553665720858,2,2,2,1,1561469.39069516,7,A
44,4,21/12/94,21,F,258,The bucket lent Max,Non-sensible,edin_semantics,sem_emo_sem_emo,3.38326243241318,2,2,1,0,1561473.51890302,19,A
44,4,21/12/94,21,F,259,Jack drank the beer,Sensible,edin_semantics,sem_emo_sem_emo,1.32506042416207,1,2,2,1,1561475.58884697,135,A
44,4,21/12/94,21,F,260,Hugh dialed the hotline,Sensible,edin_semantics,sem_emo_sem_emo,2.47749720327556,2,1,1,1,1561478.81148171,138,A
44,4,21/12/94,21,F,261,The box lifted Kate,Non-sensible,edin_semantics,sem_emo_sem_emo,0.901716759195551,1,2,2,1,1561480.45800919,69,A
44,4,21/12/94,21,F,262,Jack cleaned the bath,Sensible,edin_semantics,sem_emo_sem_emo,1.33710352377966,2,1,1,1,1561482.5397278,80,A
44,4,21/12/94,21,F,263,The spoon licked Will,Non-sensible,edin_semantics,sem_emo_sem_emo,1.04331827652641,1,2,2,1,1561484.32741933,21,A
44,4,21/12/94,21,F,264,The museum visited Mary,Non-sensible,edin_semantics,sem_emo_sem_emo,1.11378115485422,2,1,1,1,1561486.18569113,16,A
44,4,21/12/94,21,F,265,The parcel mailed Rob,Non-sensible,edin_semantics,sem_emo_sem_emo,1.49011054635048,1,1,2,0,1561488.42034363,14,A
44,4,21/12/94,21,F,266,The jar labeled Liz,Non-sensible,edin_semantics,sem_emo_sem_emo,1.14854931156151,2,2,1,0,1561490.31387237,61,A
44,4,21/12/94,21,F,267,Fred chopped the carrots,Sensible,edin_semantics,sem_emo_sem_emo,1.33709807158448,1,1,2,0,1561492.39559803,102,A
44,4,21/12/94,21,F,268,Owen swallowed the gum,Sensible,edin_semantics,sem_emo_sem_emo,2.64287670678459,2,2,1,0,1561495.78282843,97,A
44,4,21/12/94,21,F,269,Phil solved the problem,Sensible,edin_semantics,sem_emo_sem_emo,1.1727448774036,2,2,1,0,1561497.69990295,109,A
44,4,21/12/94,21,F,270,Phil cancelled the party,Sensible,edin_semantics,sem_emo_sem_emo,2.91275920742191,2,1,1,1,1561501.35763003,82,A
44,4,21/12/94,21,F,271,The lever pulled Hugh,Non-sensible,edin_semantics,sem_emo_sem_emo,1.76075860951096,2,2,1,0,1561503.86275677,45,A
44,4,21/12/94,21,F,272,The tomato sliced Liz,Non-sensible,edin_semantics,sem_emo_sem_emo,1.11312527908012,2,2,1,0,1561505.72101125,3,A
44,4,21/12/94,21,F,273,Kate wore the dress,Sensible,edin_semantics,sem_emo_sem_emo,1.12527453782968,2,1,1,1,1561507.59103044,100,A
44,4,21/12/94,21,F,274,The shelf dusted Jake,Non-sensible,edin_semantics,sem_emo_sem_emo,0.948265344602987,1,2,2,1,1561509.28464211,47,A
44,4,21/12/94,21,F,275,Dan brushed the hair,Sensible,edin_semantics,sem_emo_sem_emo,1.51327082258649,2,2,1,0,1561511.54281122,147,A
44,4,21/12/94,21,F,276,Fred served the dessert,Sensible,edin_semantics,sem_emo_sem_emo,1.79603831726126,1,2,2,1,1561514.08324685,145,A
44,4,21/12/94,21,F,277,The lesson taught Eve,Non-sensible,edin_semantics,sem_emo_sem_emo,1.2785490420647,2,2,1,0,1561516.10613643,15,A
44,4,21/12/94,21,F,278,Adam chewed the fat,Sensible,edin_semantics,sem_emo_sem_emo,1.52474335860461,2,1,1,1,1561518.37604427,106,A
44,4,21/12/94,21,F,279,The cake iced Mary,Non-sensible,edin_semantics,sem_emo_sem_emo,4.22996098757721,1,1,1,1,1561523.35103567,44,A
44,4,21/12/94,21,F,280,The room tidied Sam,Non-sensible,edin_semantics,sem_emo_sem_emo,2.13634360581636,1,1,2,0,1561526.23251938,2,A
44,4,21/12/94,21,F,281,Liz weighed the sugar,Sensible,edin_semantics,sem_emo_sem_emo,1.26593249198049,1,2,2,1,1561528.24370744,139,A
44,4,21/12/94,21,F,282,The card posted Erin,Non-sensible,edin_semantics,sem_emo_sem_emo,1.27733607264236,2,1,1,1,1561530.26661274,36,A
44,4,21/12/94,21,F,283,Erin punched the monitor,Sensible,edin_semantics,sem_emo_sem_emo,1.13689203979447,1,2,2,1,1561532.14840787,125,A
44,4,21/12/94,21,F,284,The laptop fixed Jen,Non-sensible,edin_semantics,sem_emo_sem_emo,0.984115616185591,1,2,2,1,1561533.87731978,37,A
44,4,21/12/94,21,F,285,Liam sliced the onion,Sensible,edin_semantics,sem_emo_sem_emo,0.948485038941726,2,1,1,1,1561535.57089104,78,A
44,4,21/12/94,21,F,286,The mirror kissed Max,Non-sensible,edin_semantics,sem_emo_sem_emo,0.7840282516554,1,2,1,0,1561537.09996927,23,A
44,4,21/12/94,21,F,287,The fruits mixed Jack,Non-sensible,edin_semantics,sem_emo_sem_emo,1.50162926642224,2,1,1,1,1561539.3463108,8,A
44,4,21/12/94,21,F,288,The flour weighed Jen,Non-sensible,edin_semantics,sem_emo_sem_emo,1.0897690418642,2,1,1,1,1561541.18101212,64,A
44,4,21/12/94,21,F,289,The ham ate Tim,Non-sensible,edin_semantics,sem_emo_sem_emo,1.45443153986707,2,2,1,0,1561543.38031115,67,A
44,4,21/12/94,21,F,290,The room searched Jen,Non-sensible,edin_semantics,sem_emo_sem_emo,1.34898048988543,1,1,2,0,1561545.47384867,10,A
44,4,21/12/94,21,F,291,The pen described John,Non-sensible,edin_semantics,sem_emo_sem_emo,1.51374196261168,2,1,1,1,1561547.73197801,42,A
44,4,21/12/94,21,F,292,The bushes trimmed Jon,Non-sensible,edin_semantics,sem_emo_sem_emo,2.23068132833578,1,1,2,0,1561550.70755729,32,A
44,4,21/12/94,21,F,293,The story wrote Ewan,Non-sensible,edin_semantics,sem_emo_sem_emo,1.4779497415293,2,1,1,1,1561552.93040692,74,A
44,4,21/12/94,21,F,294,Sam sucked the candy,Sensible,edin_semantics,sem_emo_sem_emo,1.56038516107947,1,2,2,1,1561555.23560473,87,A
44,4,21/12/94,21,F,295,The trolley pushed Matt,Non-sensible,edin_semantics,sem_emo_sem_emo,0.960896648000926,2,1,1,1,1561556.94097791,26,A
44,4,21/12/94,21,F,296,Anna polished the trophy,Sensible,edin_semantics,sem_emo_sem_emo,1.03139256080613,1,1,2,0,1561558.71692974,104,A
44,4,21/12/94,21,F,297,Sara jumped the hedge,Sensible,edin_semantics,sem_emo_sem_emo,2.07827630033717,1,1,2,0,1561561.53958347,92,A
44,4,21/12/94,21,F,298,The photo took Beth,Non-sensible,edin_semantics,sem_emo_sem_emo,1.52524464647286,1,2,2,1,1561563.80956476,53,A
44,4,21/12/94,21,F,299,Rose built the shed,Sensible,edin_semantics,sem_emo_sem_emo,2.64260537619703,1,2,2,1,1561567.1967169,121,A
44,4,21/12/94,21,F,300,The bowl scrubbed Liz,Non-sensible,edin_semantics,sem_emo_sem_emo,1.93681269348599,1,1,2,0,1561569.87826719,56,A
