subject_column,AssignedList_column,subject_dob_column,subject_age_column,subject_gender_column,trialnum_column,Stim_column,Type_column,Experiment_column,OrderGroup_column,ReactionTime_column,StimSide_column,StimPosition_column,Response_column,Valid_column,TrialEndSecs_column,PairID_column,List_column
45,1,30/1/96,20,M,1,Eve ironed the trousers,Sensible,edin_semantics,emo_sem_emo_sem,0.707806494319811,1,1,1,1,1570419.48686292,130,A
45,1,30/1/96,20,M,2,The dish served Kate,Non-sensible,edin_semantics,emo_sem_emo_sem,0.923798127332702,1,1,1,1,1570421.1569349,70,A
45,1,30/1/96,20,M,3,Jack cleaned the bath,Sensible,edin_semantics,emo_sem_emo_sem,0.794957485049963,2,1,1,1,1570422.69762839,80,A
45,1,30/1/96,20,M,4,The puzzle solved Joe,Non-sensible,edin_semantics,emo_sem_emo_sem,0.724769465392455,1,1,1,1,1570424.1677785,34,A
45,1,30/1/96,20,M,5,The number dialed Tom,Non-sensible,edin_semantics,emo_sem_emo_sem,0.821226195897907,1,2,2,1,1570425.73201489,63,A
45,1,30/1/96,20,M,6,Lucy wiped the desk,Sensible,edin_semantics,emo_sem_emo_sem,0.66845009312965,2,2,2,1,1570427.14339082,115,A
45,1,30/1/96,20,M,7,Mike ate the steak,Sensible,edin_semantics,emo_sem_emo_sem,0.715761034283787,2,1,1,1,1570428.60184518,142,A
45,1,30/1/96,20,M,8,The bushes trimmed Jon,Non-sensible,edin_semantics,emo_sem_emo_sem,0.644749721512198,2,1,1,1,1570429.98956724,32,A
45,1,30/1/96,20,M,9,The herbs chopped Phil,Non-sensible,edin_semantics,emo_sem_emo_sem,0.844722909387201,1,2,2,1,1570431.57737251,27,A
45,1,30/1/96,20,M,10,Max searched the internet,Sensible,edin_semantics,emo_sem_emo_sem,0.915187391219661,2,2,2,1,1570433.2356554,85,A
45,1,30/1/96,20,M,11,The garden watered Jeff,Non-sensible,edin_semantics,emo_sem_emo_sem,0.844960884656757,2,1,1,1,1570434.82342667,54,A
45,1,30/1/96,20,M,12,Jay painted the portrait,Sensible,edin_semantics,emo_sem_emo_sem,1.16247184062377,1,1,1,1,1570436.72874032,110,A
45,1,30/1/96,20,M,13,Amy lifted the crate,Sensible,edin_semantics,emo_sem_emo_sem,0.938880386063829,1,1,1,1,1570438.41058054,144,A
45,1,30/1/96,20,M,14,Eve typed the message,Sensible,edin_semantics,emo_sem_emo_sem,1.17415637359954,1,1,1,1,1570440.32765891,124,A
45,1,30/1/96,20,M,15,The lesson taught Eve,Non-sensible,edin_semantics,emo_sem_emo_sem,0.844978203764185,2,2,2,1,1570441.91542344,15,A
45,1,30/1/96,20,M,16,The teeth brushed Carl,Non-sensible,edin_semantics,emo_sem_emo_sem,0.891350712860003,1,1,1,1,1570443.55021989,72,A
45,1,30/1/96,20,M,17,Adam chewed the fat,Sensible,edin_semantics,emo_sem_emo_sem,0.750686985906214,2,1,1,1,1570445.04387794,106,A
45,1,30/1/96,20,M,18,Kate hugged the pillow,Sensible,edin_semantics,emo_sem_emo_sem,0.785814992384985,1,1,1,1,1570446.57282724,86,A
45,1,30/1/96,20,M,19,The lever pulled Hugh,Non-sensible,edin_semantics,emo_sem_emo_sem,0.739136193878949,2,2,2,1,1570448.05473853,45,A
45,1,30/1/96,20,M,20,Phil cancelled the party,Sensible,edin_semantics,emo_sem_emo_sem,0.70334910438396,2,1,1,1,1570449.50136467,82,A
45,1,30/1/96,20,M,21,Liam mixed the nuts,Sensible,edin_semantics,emo_sem_emo_sem,0.950705074472353,1,2,2,1,1570451.19497185,83,A
45,1,30/1/96,20,M,22,The hill climbed Luke,Non-sensible,edin_semantics,emo_sem_emo_sem,0.821095020743087,1,1,1,1,1570452.75926565,68,A
45,1,30/1/96,20,M,23,The box lifted Kate,Non-sensible,edin_semantics,emo_sem_emo_sem,0.891760595375672,1,2,2,1,1570454.39401623,69,A
45,1,30/1/96,20,M,24,The bucket lent Max,Non-sensible,edin_semantics,emo_sem_emo_sem,1.16243463684805,1,2,2,1,1570456.29936228,19,A
45,1,30/1/96,20,M,25,The potatoes mashed Will,Non-sensible,edin_semantics,emo_sem_emo_sem,1.17407138249837,1,1,1,1,1570458.21643263,28,A
45,1,30/1/96,20,M,26,The card posted Erin,Non-sensible,edin_semantics,emo_sem_emo_sem,0.773986455285922,2,1,1,1,1570459.73362748,36,A
45,1,30/1/96,20,M,27,Ryan knitted the socks,Sensible,edin_semantics,emo_sem_emo_sem,0.726435614516959,2,2,2,1,1570461.20374648,141,A
45,1,30/1/96,20,M,28,Tom grated the carrots,Sensible,edin_semantics,emo_sem_emo_sem,0.809320044470951,2,1,1,1,1570462.75623708,140,A
45,1,30/1/96,20,M,29,Tim sniffed the perfume,Sensible,edin_semantics,emo_sem_emo_sem,0.76243630470708,1,2,2,1,1570464.26168485,93,A
45,1,30/1/96,20,M,30,Josh taught the rules,Sensible,edin_semantics,emo_sem_emo_sem,0.727043702965602,1,1,1,1,1570465.73180867,90,A
45,1,30/1/96,20,M,31,Rob measured the curtains,Sensible,edin_semantics,emo_sem_emo_sem,0.785703381290659,2,1,1,1,1570467.26081185,126,A
45,1,30/1/96,20,M,32,Luke fixed the radio,Sensible,edin_semantics,emo_sem_emo_sem,0.785627370001748,1,1,1,1,1570468.78972395,112,A
45,1,30/1/96,20,M,33,The pen described John,Non-sensible,edin_semantics,emo_sem_emo_sem,0.679667334537953,2,1,1,1,1570470.21281296,42,A
45,1,30/1/96,20,M,34,Hugh kissed the rose,Sensible,edin_semantics,emo_sem_emo_sem,0.832837604451925,1,1,1,1,1570471.78880252,98,A
45,1,30/1/96,20,M,35,Ella mashed the turnip,Sensible,edin_semantics,emo_sem_emo_sem,0.856540541863069,1,2,2,1,1570473.38834972,103,A
45,1,30/1/96,20,M,36,Jack posted the gift,Sensible,edin_semantics,emo_sem_emo_sem,0.986144501715899,2,2,2,1,1570475.11722539,111,A
45,1,30/1/96,20,M,37,The handle pulled Tim,Non-sensible,edin_semantics,emo_sem_emo_sem,0.962322897510603,2,2,2,1,1570476.82263128,73,A
45,1,30/1/96,20,M,38,The table wiped Beth,Non-sensible,edin_semantics,emo_sem_emo_sem,1.33872701716609,1,1,1,1,1570478.90438709,40,A
45,1,30/1/96,20,M,39,The cake iced Mary,Non-sensible,edin_semantics,emo_sem_emo_sem,1.19753474066965,1,1,1,1,1570480.84491566,44,A
45,1,30/1/96,20,M,40,Ian dented the bowl,Sensible,edin_semantics,emo_sem_emo_sem,0.95009698625654,1,1,1,1,1570482.53853503,146,A
45,1,30/1/96,20,M,41,Joe iced the donut,Sensible,edin_semantics,emo_sem_emo_sem,1.23292349395342,1,2,1,0,1570484.51440746,119,A
45,1,30/1/96,20,M,42,Leo carried the wallet,Sensible,edin_semantics,emo_sem_emo_sem,0.855584791162983,1,1,1,1,1570486.11400245,150,A
45,1,30/1/96,20,M,43,The story wrote Ewan,Non-sensible,edin_semantics,emo_sem_emo_sem,0.914250563131645,2,1,1,1,1570487.77228855,74,A
45,1,30/1/96,20,M,44,Jack drank the beer,Sensible,edin_semantics,emo_sem_emo_sem,0.879581509623677,1,2,2,1,1570489.395319,135,A
45,1,30/1/96,20,M,45,The papers filed Lara,Non-sensible,edin_semantics,emo_sem_emo_sem,0.855856442358345,2,1,1,1,1570490.99486332,24,A
45,1,30/1/96,20,M,46,The jumper wore Joe,Non-sensible,edin_semantics,emo_sem_emo_sem,0.73857140308246,2,2,2,1,1570492.47672458,25,A
45,1,30/1/96,20,M,47,The fur stroked Rob,Non-sensible,edin_semantics,emo_sem_emo_sem,0.773642000043765,2,2,2,1,1570493.99395119,41,A
45,1,30/1/96,20,M,48,Alex wrote the report,Sensible,edin_semantics,emo_sem_emo_sem,0.832787251099944,2,2,2,1,1570495.56997378,149,A
45,1,30/1/96,20,M,49,Ben got the radio,Sensible,edin_semantics,emo_sem_emo_sem,0.891362258931622,2,1,1,1,1570497.20474072,88,A
45,1,30/1/96,20,M,50,The juice drank Matt,Non-sensible,edin_semantics,emo_sem_emo_sem,1.11449700570665,1,1,1,1,1570499.06302342,60,A
45,1,30/1/96,20,M,51,The ball squeezed Josh,Non-sensible,edin_semantics,emo_sem_emo_sem,1.06789902923629,1,2,2,1,1570500.87423283,1,A
45,1,30/1/96,20,M,52,Sara jumped the hedge,Sensible,edin_semantics,emo_sem_emo_sem,0.809021773049608,1,1,1,1,1570502.42670611,92,A
45,1,30/1/96,20,M,53,The book read Sean,Non-sensible,edin_semantics,emo_sem_emo_sem,0.855814107228071,2,1,1,1,1570504.02620168,4,A
45,1,30/1/96,20,M,54,Fred lent the car,Sensible,edin_semantics,emo_sem_emo_sem,1.23232566844672,1,1,1,1,1570506.00210073,94,A
45,1,30/1/96,20,M,55,The mirror kissed Max,Non-sensible,edin_semantics,emo_sem_emo_sem,0.832814833382145,1,2,2,1,1570507.578106,23,A
45,1,30/1/96,20,M,56,The photo took Beth,Non-sensible,edin_semantics,emo_sem_emo_sem,1.35022905934602,1,2,2,1,1570509.67157456,53,A
45,1,30/1/96,20,M,57,The parcel mailed Rob,Non-sensible,edin_semantics,emo_sem_emo_sem,1.48007676773705,1,1,1,1,1570511.89449539,14,A
45,1,30/1/96,20,M,58,The shirt ironed Josh,Non-sensible,edin_semantics,emo_sem_emo_sem,1.02091907314025,1,2,2,1,1570513.65862126,55,A
45,1,30/1/96,20,M,59,The toffee chewed Ben,Non-sensible,edin_semantics,emo_sem_emo_sem,1.50310811400414,1,2,2,1,1570515.90506958,31,A
45,1,30/1/96,20,M,60,The spoon licked Will,Non-sensible,edin_semantics,emo_sem_emo_sem,1.03240892780013,2,2,2,1,1570517.68098967,21,A
45,1,30/1/96,20,M,61,Lucy cut the ribbon,Sensible,edin_semantics,emo_sem_emo_sem,1.3619559276849,1,2,2,1,1570519.7862284,95,A
45,1,30/1/96,20,M,62,The money offered Matt,Non-sensible,edin_semantics,emo_sem_emo_sem,0.985911016352475,2,2,2,1,1570521.51508964,9,A
45,1,30/1/96,20,M,63,Sam sucked the candy,Sensible,edin_semantics,emo_sem_emo_sem,0.997043908108026,1,2,2,1,1570523.25575407,87,A
45,1,30/1/96,20,M,64,The tomato sliced Liz,Non-sensible,edin_semantics,emo_sem_emo_sem,1.60874582407996,1,2,2,1,1570525.60798251,3,A
45,1,30/1/96,20,M,65,The floor cleaned Tim,Non-sensible,edin_semantics,emo_sem_emo_sem,0.715075651649386,2,2,2,1,1570527.06636887,5,A
45,1,30/1/96,20,M,66,The house built Kate,Non-sensible,edin_semantics,emo_sem_emo_sem,0.679626923752949,2,1,1,1,1570528.48946878,46,A
45,1,30/1/96,20,M,67,Liz weighed the sugar,Sensible,edin_semantics,emo_sem_emo_sem,0.89166566170752,2,2,2,1,1570530.12429088,139,A
45,1,30/1/96,20,M,68,The picture painted Ryan,Non-sensible,edin_semantics,emo_sem_emo_sem,0.86829980276525,2,2,2,1,1570531.7355656,35,A
45,1,30/1/96,20,M,69,Anna polished the trophy,Sensible,edin_semantics,emo_sem_emo_sem,0.738711237674579,2,1,1,1,1570533.2174692,104,A
45,1,30/1/96,20,M,70,The shelf dusted Jake,Non-sensible,edin_semantics,emo_sem_emo_sem,0.809289575787261,1,2,2,1,1570534.76995595,47,A
45,1,30/1/96,20,M,71,Erin tidied the garage,Sensible,edin_semantics,emo_sem_emo_sem,1.15015388210304,1,2,2,1,1570536.66350264,77,A
45,1,30/1/96,20,M,72,John carried the kettle,Sensible,edin_semantics,emo_sem_emo_sem,1.02115480345674,2,2,2,1,1570538.4276702,105,A
45,1,30/1/96,20,M,73,The tree hugged Amy,Non-sensible,edin_semantics,emo_sem_emo_sem,0.914840370416641,2,2,2,1,1570540.08601179,11,A
45,1,30/1/96,20,M,74,Adam watched the opera,Sensible,edin_semantics,emo_sem_emo_sem,0.844456710387021,1,1,1,1,1570541.67375483,108,A
45,1,30/1/96,20,M,75,Tom whisked the cream,Sensible,edin_semantics,emo_sem_emo_sem,0.773605758557096,2,2,2,1,1570543.19095289,137,A
45,1,30/1/96,20,M,76,Beth washed the pan,Sensible,edin_semantics,emo_sem_emo_sem,1.65612123021856,2,1,1,1,1570545.59024916,132,A
45,1,30/1/96,20,M,77,Josh scrubbed the pot,Sensible,edin_semantics,emo_sem_emo_sem,0.679566628066823,2,2,2,1,1570547.01333561,131,A
45,1,30/1/96,20,M,78,Ian pushed the button,Sensible,edin_semantics,emo_sem_emo_sem,1.15018018148839,1,2,1,0,1570548.90687974,101,A
45,1,30/1/96,20,M,79,The pill swallowed Luke,Non-sensible,edin_semantics,emo_sem_emo_sem,1.05616093566641,2,1,1,1,1570550.70636966,22,A
45,1,30/1/96,20,M,80,Leo passed the salt,Sensible,edin_semantics,emo_sem_emo_sem,1.0092242769897,1,1,1,1,1570552.45880298,118,A
45,1,30/1/96,20,M,81,The bill paid Mike,Non-sensible,edin_semantics,emo_sem_emo_sem,0.855909040896222,1,2,2,1,1570554.05829951,59,A
45,1,30/1/96,20,M,82,Luke watered the plants,Sensible,edin_semantics,emo_sem_emo_sem,1.20880554267205,2,2,2,1,1570556.0106749,129,A
45,1,30/1/96,20,M,83,Erin punched the monitor,Sensible,edin_semantics,emo_sem_emo_sem,0.832741388119757,1,2,2,1,1570557.58667247,125,A
45,1,30/1/96,20,M,84,Fred served the dessert,Sensible,edin_semantics,emo_sem_emo_sem,1.0324557533022,1,2,2,1,1570559.36258967,145,A
45,1,30/1/96,20,M,85,Tom visited the hospital,Sensible,edin_semantics,emo_sem_emo_sem,0.844339646864682,2,2,2,1,1570560.95034073,91,A
45,1,30/1/96,20,M,86,The ham ate Tim,Non-sensible,edin_semantics,emo_sem_emo_sem,0.680414295522496,2,2,2,1,1570562.37343327,67,A
45,1,30/1/96,20,M,87,The room entered Ryan,Non-sensible,edin_semantics,emo_sem_emo_sem,0.974117438076064,1,1,1,1,1570564.09057053,58,A
45,1,30/1/96,20,M,88,Ian labeled the box,Sensible,edin_semantics,emo_sem_emo_sem,1.92705249064602,1,1,1,1,1570566.76042121,136,A
45,1,30/1/96,20,M,89,Dan brushed the hair,Sensible,edin_semantics,emo_sem_emo_sem,0.868055413011462,2,2,2,1,1570568.37164429,147,A
45,1,30/1/96,20,M,90,The letter typed Phil,Non-sensible,edin_semantics,emo_sem_emo_sem,1.11519778263755,2,2,2,1,1570570.22992924,49,A
45,1,30/1/96,20,M,91,Emma pulled the rope,Sensible,edin_semantics,emo_sem_emo_sem,0.868278635432944,2,1,1,1,1570571.84121037,120,A
45,1,30/1/96,20,M,92,The fruits mixed Jack,Non-sensible,edin_semantics,emo_sem_emo_sem,0.797522938111797,2,1,1,1,1570573.38190835,8,A
45,1,30/1/96,20,M,93,The bike kicked Matt,Non-sensible,edin_semantics,emo_sem_emo_sem,1.51544242911041,2,2,2,1,1570575.64006654,39,A
45,1,30/1/96,20,M,94,The sofa sold Carl,Non-sensible,edin_semantics,emo_sem_emo_sem,1.60954089323059,2,1,1,1,1570577.99234598,38,A
45,1,30/1/96,20,M,95,Bill trimmed the hair,Sensible,edin_semantics,emo_sem_emo_sem,1.31511452328414,1,2,2,1,1570580.05049635,107,A
45,1,30/1/96,20,M,96,Ian mailed the invite,Sensible,edin_semantics,emo_sem_emo_sem,1.11453356803395,1,2,2,1,1570581.90878162,89,A
45,1,30/1/96,20,M,97,The eggs whisked Dan,Non-sensible,edin_semantics,emo_sem_emo_sem,1.11484274384566,2,1,1,1,1570583.76705598,62,A
45,1,30/1/96,20,M,98,Liam sliced the onion,Sensible,edin_semantics,emo_sem_emo_sem,0.762369594536722,1,1,1,1,1570585.27249702,78,A
45,1,30/1/96,20,M,99,The paper cut Jon,Non-sensible,edin_semantics,emo_sem_emo_sem,1.11478180671111,2,1,1,1,1570587.13077042,20,A
45,1,30/1/96,20,M,100,The laptop fixed Jen,Non-sensible,edin_semantics,emo_sem_emo_sem,1.03274761000648,1,2,2,1,1570588.90666261,37,A
45,1,30/1/96,20,M,101,Rose built the shed,Sensible,edin_semantics,emo_sem_emo_sem,0.961929372046143,1,2,2,1,1570590.61205599,121,A
45,1,30/1/96,20,M,102,The garlic crushed Erin,Non-sensible,edin_semantics,emo_sem_emo_sem,1.17312717763707,2,1,1,1,1570592.52913019,6,A
45,1,30/1/96,20,M,103,The folder carried Dan,Non-sensible,edin_semantics,emo_sem_emo_sem,0.879587923875079,2,1,1,1,1570594.15217122,30,A
45,1,30/1/96,20,M,104,The sheets counted Bill,Non-sensible,edin_semantics,emo_sem_emo_sem,1.03265812876634,2,1,1,1,1570595.92811568,48,A
45,1,30/1/96,20,M,105,The cheese grated Andy,Non-sensible,edin_semantics,emo_sem_emo_sem,1.07958452426828,2,2,2,1,1570597.75109366,65,A
45,1,30/1/96,20,M,106,Josh crushed the ice,Sensible,edin_semantics,emo_sem_emo_sem,1.87901960522868,2,2,2,1,1570600.37383033,81,A
45,1,30/1/96,20,M,107,The flour weighed Jen,Non-sensible,edin_semantics,emo_sem_emo_sem,1.06735091563314,1,1,1,1,1570602.18504295,64,A
45,1,30/1/96,20,M,108,Owen swallowed the gum,Sensible,edin_semantics,emo_sem_emo_sem,1.43137710192241,1,2,2,1,1570604.36089723,97,A
45,1,30/1/96,20,M,109,The bowl scrubbed Liz,Non-sensible,edin_semantics,emo_sem_emo_sem,2.00839040032588,2,1,1,1,1570607.11300757,56,A
45,1,30/1/96,20,M,110,The room tidied Sam,Non-sensible,edin_semantics,emo_sem_emo_sem,0.92627955134958,2,1,1,1,1570608.78314627,2,A
45,1,30/1/96,20,M,111,The wall punched Jane,Non-sensible,edin_semantics,emo_sem_emo_sem,0.80856057535857,2,1,1,1,1570610.33555412,50,A
45,1,30/1/96,20,M,112,The coins polished Jon,Non-sensible,edin_semantics,emo_sem_emo_sem,0.808184048160911,1,2,2,1,1570611.8880399,29,A
45,1,30/1/96,20,M,113,The milk sniffed Phil,Non-sensible,edin_semantics,emo_sem_emo_sem,1.01994985202327,1,1,1,1,1570613.65221452,18,A
45,1,30/1/96,20,M,114,The room searched Jen,Non-sensible,edin_semantics,emo_sem_emo_sem,0.890895609045401,2,1,1,1,1570615.28704239,10,A
45,1,30/1/96,20,M,115,The dishes washed Mark,Non-sensible,edin_semantics,emo_sem_emo_sem,1.05569364409894,2,2,2,1,1570617.08698774,57,A
45,1,30/1/96,20,M,116,Ben climbed the stairs,Sensible,edin_semantics,emo_sem_emo_sem,0.867692997446284,2,2,2,1,1570618.69774161,143,A
45,1,30/1/96,20,M,117,Andy pulled the rope,Sensible,edin_semantics,emo_sem_emo_sem,0.856213084887713,1,1,1,1,1570620.29730998,148,A
45,1,30/1/96,20,M,118,Jane licked the plate,Sensible,edin_semantics,emo_sem_emo_sem,1.03278770018369,1,1,1,1,1570622.07321916,96,A
45,1,30/1/96,20,M,119,Joe entered the office,Sensible,edin_semantics,emo_sem_emo_sem,1.26757683209144,2,2,2,1,1570624.08437418,133,A
45,1,30/1/96,20,M,120,Max kicked the door,Sensible,edin_semantics,emo_sem_emo_sem,1.19719605846331,2,1,1,1,1570626.02498101,114,A
45,1,30/1/96,20,M,121,The gun carried Ryan,Non-sensible,edin_semantics,emo_sem_emo_sem,1.03114111488685,1,2,2,1,1570627.80090174,75,A
45,1,30/1/96,20,M,122,Tim took the ticket,Sensible,edin_semantics,emo_sem_emo_sem,0.866763866739348,2,1,1,1,1570629.41218255,128,A
45,1,30/1/96,20,M,123,Tom offered the sweets,Sensible,edin_semantics,emo_sem_emo_sem,1.03168441751041,1,1,1,1,1570631.18812509,84,A
45,1,30/1/96,20,M,124,Kate wore the dress,Sensible,edin_semantics,emo_sem_emo_sem,0.843934254720807,2,1,1,1,1570632.77589667,100,A
45,1,30/1/96,20,M,125,Jay squeezed the lemon,Sensible,edin_semantics,emo_sem_emo_sem,0.808785080444068,1,1,1,1,1570634.32836835,76,A
45,1,30/1/96,20,M,126,The wine stored Leo,Non-sensible,edin_semantics,emo_sem_emo_sem,1.0435533656273,1,1,1,1,1570636.11608843,52,A
45,1,30/1/96,20,M,127,Erin described the church,Sensible,edin_semantics,emo_sem_emo_sem,0.796637104591355,2,2,2,1,1570637.65679795,117,A
45,1,30/1/96,20,M,128,Hugh dialed the hotline,Sensible,edin_semantics,emo_sem_emo_sem,0.914355118526146,2,1,1,1,1570639.31513409,138,A
45,1,30/1/96,20,M,129,The movie watched Ella,Non-sensible,edin_semantics,emo_sem_emo_sem,0.749832262517884,2,2,2,1,1570640.8087931,33,A
45,1,30/1/96,20,M,130,Fred stored the rice,Sensible,edin_semantics,emo_sem_emo_sem,0.961490945424885,2,2,2,1,1570642.51414832,127,A
45,1,30/1/96,20,M,131,The thread measured Amy,Non-sensible,edin_semantics,emo_sem_emo_sem,0.925717967562377,2,2,2,1,1570644.1842543,51,A
45,1,30/1/96,20,M,132,The trolley pushed Matt,Non-sensible,edin_semantics,emo_sem_emo_sem,0.726369225187227,2,1,1,1,1570645.65439831,26,A
45,1,30/1/96,20,M,133,The lolly sucked Leah,Non-sensible,edin_semantics,emo_sem_emo_sem,0.725761778187007,2,1,1,1,1570647.12455163,12,A
45,1,30/1/96,20,M,134,The museum visited Mary,Non-sensible,edin_semantics,emo_sem_emo_sem,0.820263068657368,1,1,1,1,1570648.68883837,16,A
45,1,30/1/96,20,M,135,The plans cancelled Ian,Non-sensible,edin_semantics,emo_sem_emo_sem,0.831623352132738,2,2,2,1,1570650.26482632,7,A
45,1,30/1/96,20,M,136,The towels passed Phil,Non-sensible,edin_semantics,emo_sem_emo_sem,0.901545814471319,2,2,2,1,1570651.91141057,43,A
45,1,30/1/96,20,M,137,The scarf knitted Tom,Non-sensible,edin_semantics,emo_sem_emo_sem,0.949346818262711,2,1,1,1,1570653.60495265,66,A
45,1,30/1/96,20,M,138,Phil solved the problem,Sensible,edin_semantics,emo_sem_emo_sem,0.761316023766994,1,2,2,1,1570655.11040107,109,A
45,1,30/1/96,20,M,139,The kettle got Lily,Non-sensible,edin_semantics,emo_sem_emo_sem,0.691052313428372,1,2,2,1,1570656.54523138,13,A
45,1,30/1/96,20,M,140,Luke read the poster,Sensible,edin_semantics,emo_sem_emo_sem,1.14955509477295,1,2,2,1,1570658.43878225,79,A
45,1,30/1/96,20,M,141,Jay sold the bed,Sensible,edin_semantics,emo_sem_emo_sem,1.18433832540177,1,2,2,1,1570660.36761474,113,A
45,1,30/1/96,20,M,142,Ryan stroked the blanket,Sensible,edin_semantics,emo_sem_emo_sem,1.91410976625048,2,1,1,1,1570663.02565838,116,A
45,1,30/1/96,20,M,143,Fred chopped the carrots,Sensible,edin_semantics,emo_sem_emo_sem,0.878280341625214,2,1,1,1,1570664.64868947,102,A
45,1,30/1/96,20,M,144,Zoe paid the debt,Sensible,edin_semantics,emo_sem_emo_sem,0.949475748464465,1,1,2,0,1570666.34231493,134,A
45,1,30/1/96,20,M,145,The jar labeled Liz,Non-sensible,edin_semantics,emo_sem_emo_sem,1.61959295300767,1,2,2,1,1570668.70633406,61,A
45,1,30/1/96,20,M,146,The lorry dented Lily,Non-sensible,edin_semantics,emo_sem_emo_sem,1.47882402897812,1,2,2,1,1570670.92918721,71,A
45,1,30/1/96,20,M,147,Ian filed the report,Sensible,edin_semantics,emo_sem_emo_sem,0.925810335436836,1,2,2,1,1570672.5992855,99,A
45,1,30/1/96,20,M,148,The fence jumped Jon,Non-sensible,edin_semantics,emo_sem_emo_sem,1.07884558150545,2,2,2,1,1570674.42227149,17,A
45,1,30/1/96,20,M,149,Lucy counted the shoes,Sensible,edin_semantics,emo_sem_emo_sem,0.808069229591638,2,2,2,1,1570675.97475439,123,A
45,1,30/1/96,20,M,150,Alex dusted the house,Sensible,edin_semantics,emo_sem_emo_sem,1.22023061173968,2,1,1,1,1570677.93886627,122,A
45,1,30/1/96,20,M,151,The stairs climbed Ben,Non-sensible,edin_semantics,emo_sem_emo_sem,1.11828088038601,1,2,2,1,1570767.61788094,143,B
45,1,30/1/96,20,M,152,Jen searched the room,Sensible,edin_semantics,emo_sem_emo_sem,0.88796389196068,2,1,1,1,1570769.25266808,10,B
45,1,30/1/96,20,M,153,The pan washed Beth,Non-sensible,edin_semantics,emo_sem_emo_sem,0.737746506696567,2,1,1,1,1570770.73457457,132,B
45,1,30/1/96,20,M,154,The shoes counted Lucy,Non-sensible,edin_semantics,emo_sem_emo_sem,0.667033465346321,2,2,2,1,1570772.14594152,123,B
45,1,30/1/96,20,M,155,Leah sucked the lolly,Sensible,edin_semantics,emo_sem_emo_sem,0.678891508840024,2,1,1,1,1570773.56902091,12,B
45,1,30/1/96,20,M,156,Will licked the spoon,Sensible,edin_semantics,emo_sem_emo_sem,0.6205586460419,2,2,2,1,1570774.93335916,21,B
45,1,30/1/96,20,M,157,The carrots chopped Fred,Non-sensible,edin_semantics,emo_sem_emo_sem,0.772368734935299,2,1,1,1,1570776.45051745,102,B
45,1,30/1/96,20,M,158,The curtains measured Rob,Non-sensible,edin_semantics,emo_sem_emo_sem,0.784302789485082,2,1,1,1,1570777.97951935,126,B
45,1,30/1/96,20,M,159,The dress wore Kate,Non-sensible,edin_semantics,emo_sem_emo_sem,0.925783073995262,2,1,1,1,1570779.64955638,100,B
45,1,30/1/96,20,M,160,Erin crushed the garlic,Sensible,edin_semantics,emo_sem_emo_sem,0.690294127445668,2,1,1,1,1570781.08442293,6,B
45,1,30/1/96,20,M,161,The steak ate Mike,Non-sensible,edin_semantics,emo_sem_emo_sem,1.00784741854295,2,1,1,1,1570782.8368354,142,B
45,1,30/1/96,20,M,162,The car lent Fred,Non-sensible,edin_semantics,emo_sem_emo_sem,0.702232671901584,1,1,1,1,1570784.28344807,94,B
45,1,30/1/96,20,M,163,Carl sold the sofa,Sensible,edin_semantics,emo_sem_emo_sem,0.714161595096812,1,1,1,1,1570785.74187452,38,B
45,1,30/1/96,20,M,164,Lara filed the papers,Sensible,edin_semantics,emo_sem_emo_sem,0.890052110888064,1,1,1,1,1570787.37667866,24,B
45,1,30/1/96,20,M,165,The candy sucked Sam,Non-sensible,edin_semantics,emo_sem_emo_sem,0.90246885153465,1,2,2,1,1570789.02324687,87,B
45,1,30/1/96,20,M,166,The onion sliced Liam,Non-sensible,edin_semantics,emo_sem_emo_sem,0.714155501220375,1,1,1,1,1570790.4816265,78,B
45,1,30/1/96,20,M,167,The gift posted Jack,Non-sensible,edin_semantics,emo_sem_emo_sem,0.785211714915931,1,2,2,1,1570792.01064732,111,B
45,1,30/1/96,20,M,168,Max lent the bucket,Sensible,edin_semantics,emo_sem_emo_sem,0.796168530359864,1,2,2,1,1570793.55134305,19,B
45,1,30/1/96,20,M,169,Eve taught the lesson,Sensible,edin_semantics,emo_sem_emo_sem,0.796434087911621,1,2,2,1,1570795.09199132,15,B
45,1,30/1/96,20,M,170,Luke swallowed the pill,Sensible,edin_semantics,emo_sem_emo_sem,0.784721972886473,1,1,1,1,1570796.62095345,22,B
45,1,30/1/96,20,M,171,The cream whisked Tom,Non-sensible,edin_semantics,emo_sem_emo_sem,0.902086871908978,1,2,2,1,1570798.26754027,137,B
45,1,30/1/96,20,M,172,Rob stroked the fur,Sensible,edin_semantics,emo_sem_emo_sem,1.07871568924747,2,2,2,1,1570800.09059971,41,B
45,1,30/1/96,20,M,173,Phil sniffed the milk,Sensible,edin_semantics,emo_sem_emo_sem,0.913907391019166,2,1,1,1,1570801.74884476,18,B
45,1,30/1/96,20,M,174,Jon cut the paper,Sensible,edin_semantics,emo_sem_emo_sem,0.807873589452356,1,1,1,1,1570803.30129847,20,B
45,1,30/1/96,20,M,175,The carrots grated Tom,Non-sensible,edin_semantics,emo_sem_emo_sem,0.702155698789284,1,1,1,1,1570804.74797753,140,B
45,1,30/1/96,20,M,176,Jane punched the wall,Sensible,edin_semantics,emo_sem_emo_sem,0.890250637661666,2,1,1,1,1570806.38275088,50,B
45,1,30/1/96,20,M,177,Beth took the photo,Sensible,edin_semantics,emo_sem_emo_sem,0.890512346522883,1,2,2,1,1570808.01758068,53,B
45,1,30/1/96,20,M,178,The donut iced Joe,Non-sensible,edin_semantics,emo_sem_emo_sem,1.31356190959923,2,2,2,1,1570810.07574452,119,B
45,1,30/1/96,20,M,179,The salt passed Leo,Non-sensible,edin_semantics,emo_sem_emo_sem,0.713835421018302,1,1,1,1,1570811.53415269,118,B
45,1,30/1/96,20,M,180,The lemon squeezed Jay,Non-sensible,edin_semantics,emo_sem_emo_sem,0.925663124304265,2,1,1,1,1570813.20422115,76,B
45,1,30/1/96,20,M,181,Ryan carried the gun,Sensible,edin_semantics,emo_sem_emo_sem,0.819948761491105,1,2,2,1,1570814.76846523,75,B
45,1,30/1/96,20,M,182,The rice stored Fred,Non-sensible,edin_semantics,emo_sem_emo_sem,1.65517766703852,1,2,2,1,1570817.16774194,127,B
45,1,30/1/96,20,M,183,The hair trimmed Bill,Non-sensible,edin_semantics,emo_sem_emo_sem,0.937572803813964,1,2,2,1,1570818.84960397,107,B
45,1,30/1/96,20,M,184,The door kicked Max,Non-sensible,edin_semantics,emo_sem_emo_sem,0.725434962660074,1,1,1,1,1570820.31977589,114,B
45,1,30/1/96,20,M,185,Sean read the book,Sensible,edin_semantics,emo_sem_emo_sem,0.772780541563407,1,1,1,1,1570821.83696273,4,B
45,1,30/1/96,20,M,186,Lily dented the lorry,Sensible,edin_semantics,emo_sem_emo_sem,0.796542812371627,2,2,2,1,1570823.3776684,71,B
45,1,30/1/96,20,M,187,The ice crushed Josh,Non-sensible,edin_semantics,emo_sem_emo_sem,0.784615813754499,2,2,2,1,1570824.90665299,81,B
45,1,30/1/96,20,M,188,The hair brushed Dan,Non-sensible,edin_semantics,emo_sem_emo_sem,0.913932086667046,1,2,2,1,1570826.5649439,147,B
45,1,30/1/96,20,M,189,Sam tidied the room,Sensible,edin_semantics,emo_sem_emo_sem,0.867151619167998,1,1,1,1,1570828.17624844,2,B
45,1,30/1/96,20,M,190,The box labeled Ian,Non-sensible,edin_semantics,emo_sem_emo_sem,0.890905551146716,1,1,1,1,1570829.81103558,136,B
45,1,30/1/96,20,M,191,The ticket took Tim,Non-sensible,edin_semantics,emo_sem_emo_sem,1.00838077859953,2,1,1,1,1570831.56346922,128,B
45,1,30/1/96,20,M,192,Luke climbed the hill,Sensible,edin_semantics,emo_sem_emo_sem,0.983591557014734,2,1,1,1,1570833.29233559,68,B
45,1,30/1/96,20,M,193,Amy hugged the tree,Sensible,edin_semantics,emo_sem_emo_sem,0.83197774970904,2,2,2,1,1570834.86832322,11,B
45,1,30/1/96,20,M,194,Andy grated the cheese,Sensible,edin_semantics,emo_sem_emo_sem,0.725809244904667,1,2,2,1,1570836.33848134,65,B
45,1,30/1/96,20,M,195,The socks knitted Ryan,Non-sensible,edin_semantics,emo_sem_emo_sem,1.09015743597411,2,2,2,1,1570838.17325611,141,B
45,1,30/1/96,20,M,196,The garage tidied Erin,Non-sensible,edin_semantics,emo_sem_emo_sem,0.87865237868391,2,2,2,1,1570839.79628175,77,B
45,1,30/1/96,20,M,197,Amy measured the thread,Sensible,edin_semantics,emo_sem_emo_sem,0.737169528380036,1,2,2,1,1570841.27819946,51,B
45,1,30/1/96,20,M,198,The rules taught Josh,Non-sensible,edin_semantics,emo_sem_emo_sem,0.901740171946585,2,1,1,1,1570842.92479397,90,B
45,1,30/1/96,20,M,199,The sweets offered Tom,Non-sensible,edin_semantics,emo_sem_emo_sem,0.830517183057964,2,1,1,1,1570844.50076171,84,B
45,1,30/1/96,20,M,200,Phil typed the letter,Sensible,edin_semantics,emo_sem_emo_sem,0.948924427619204,1,2,2,1,1570846.19437403,49,B
45,1,30/1/96,20,M,201,Phil passed the towels,Sensible,edin_semantics,emo_sem_emo_sem,0.725396155612543,1,2,2,1,1570847.66453472,43,B
45,1,30/1/96,20,M,202,Jack mixed the fruits,Sensible,edin_semantics,emo_sem_emo_sem,1.16046700929292,2,1,1,1,1570849.56984838,8,B
45,1,30/1/96,20,M,203,The nuts mixed Liam,Non-sensible,edin_semantics,emo_sem_emo_sem,0.889569103950635,1,2,2,1,1570851.20464931,83,B
45,1,30/1/96,20,M,204,The bath cleaned Jack,Non-sensible,edin_semantics,emo_sem_emo_sem,0.819632850587368,2,1,1,1,1570852.76885459,80,B
45,1,30/1/96,20,M,205,Kate served the dish,Sensible,edin_semantics,emo_sem_emo_sem,0.81927428371273,1,1,1,1,1570854.33311663,70,B
45,1,30/1/96,20,M,206,The rope pulled Emma,Non-sensible,edin_semantics,emo_sem_emo_sem,0.760645394679159,2,1,1,1,1570855.83855222,120,B
45,1,30/1/96,20,M,207,The fat chewed Adam,Non-sensible,edin_semantics,emo_sem_emo_sem,0.819608796620741,1,1,1,1,1570857.40278925,106,B
45,1,30/1/96,20,M,208,Tim ate the ham,Sensible,edin_semantics,emo_sem_emo_sem,0.795545688597485,2,2,2,1,1570858.94348563,67,B
45,1,30/1/96,20,M,209,The desk wiped Lucy,Non-sensible,edin_semantics,emo_sem_emo_sem,0.666435319464654,2,2,2,1,1570860.35481346,115,B
45,1,30/1/96,20,M,210,Kate lifted the box,Sensible,edin_semantics,emo_sem_emo_sem,0.690160065656528,2,2,2,1,1570861.78969765,69,B
45,1,30/1/96,20,M,211,Matt kicked the bike,Sensible,edin_semantics,emo_sem_emo_sem,1.01912591792643,1,2,2,1,1570863.55390113,39,B
45,1,30/1/96,20,M,212,The trophy polished Anna,Non-sensible,edin_semantics,emo_sem_emo_sem,1.00788654666394,2,1,1,1,1570865.30629083,104,B
45,1,30/1/96,20,M,213,The monitor punched Erin,Non-sensible,edin_semantics,emo_sem_emo_sem,0.843325204215944,2,2,2,1,1570866.89404253,125,B
45,1,30/1/96,20,M,214,Josh squeezed the ball,Sensible,edin_semantics,emo_sem_emo_sem,0.807939016725868,1,2,2,1,1570868.44653216,1,B
45,1,30/1/96,20,M,215,Bill counted the sheets,Sensible,edin_semantics,emo_sem_emo_sem,0.854712748900056,2,1,1,1,1570870.04604281,48,B
45,1,30/1/96,20,M,216,The pot scrubbed Josh,Non-sensible,edin_semantics,emo_sem_emo_sem,0.818791597615927,1,2,2,1,1570871.6102917,131,B
45,1,30/1/96,20,M,217,The poster read Luke,Non-sensible,edin_semantics,emo_sem_emo_sem,1.10242856875993,1,2,2,1,1570873.45677698,79,B
45,1,30/1/96,20,M,218,The party cancelled Phil,Non-sensible,edin_semantics,emo_sem_emo_sem,0.94898664788343,2,1,1,1,1570875.15039571,82,B
45,1,30/1/96,20,M,219,The turnip mashed Ella,Non-sensible,edin_semantics,emo_sem_emo_sem,0.819821755867451,2,2,2,1,1570876.71464813,103,B
45,1,30/1/96,20,M,220,The sugar weighed Liz,Non-sensible,edin_semantics,emo_sem_emo_sem,0.831192622892559,2,2,2,1,1570878.29064763,139,B
45,1,30/1/96,20,M,221,Ian cancelled the plans,Sensible,edin_semantics,emo_sem_emo_sem,1.12445156602189,2,2,2,1,1570880.16063539,7,B
45,1,30/1/96,20,M,222,Jon jumped the fence,Sensible,edin_semantics,emo_sem_emo_sem,1.38407866912894,1,2,2,1,1570882.28944235,17,B
45,1,30/1/96,20,M,223,Matt pushed the trolley,Sensible,edin_semantics,emo_sem_emo_sem,1.36006848048419,2,1,1,1,1570884.39468429,26,B
45,1,30/1/96,20,M,224,Carl brushed the teeth,Sensible,edin_semantics,emo_sem_emo_sem,0.89005820453167,2,1,1,1,1570886.02949517,72,B
45,1,30/1/96,20,M,225,The house dusted Alex,Non-sensible,edin_semantics,emo_sem_emo_sem,0.890016510616988,2,1,1,1,1570887.66431888,122,B
45,1,30/1/96,20,M,226,The pillow hugged Kate,Non-sensible,edin_semantics,emo_sem_emo_sem,0.890064298408106,2,1,1,1,1570889.2991304,86,B
45,1,30/1/96,20,M,227,The bowl dented Ian,Non-sensible,edin_semantics,emo_sem_emo_sem,0.972282268572599,2,1,1,1,1570891.01625097,146,B
45,1,30/1/96,20,M,228,Kate built the house,Sensible,edin_semantics,emo_sem_emo_sem,0.983774047577754,2,1,1,1,1570892.74512279,46,B
45,1,30/1/96,20,M,229,Dan carried the folder,Sensible,edin_semantics,emo_sem_emo_sem,0.913576726801693,1,1,1,1,1570894.40346822,30,B
45,1,30/1/96,20,M,230,The portrait painted Jay,Non-sensible,edin_semantics,emo_sem_emo_sem,0.867046422557905,1,1,1,1,1570896.01476025,110,B
45,1,30/1/96,20,M,231,The crate lifted Amy,Non-sensible,edin_semantics,emo_sem_emo_sem,0.855097935535014,1,1,1,1,1570897.61429559,144,B
45,1,30/1/96,20,M,232,Will mashed the potatoes,Sensible,edin_semantics,emo_sem_emo_sem,0.890324082924053,1,1,1,1,1570899.24909396,28,B
45,1,30/1/96,20,M,233,The kettle carried John,Non-sensible,edin_semantics,emo_sem_emo_sem,0.937234442448244,1,2,2,1,1570900.93093515,105,B
45,1,30/1/96,20,M,234,Joe solved the puzzle,Sensible,edin_semantics,emo_sem_emo_sem,0.702353584114462,1,1,1,1,1570902.37753338,34,B
45,1,30/1/96,20,M,235,The blanket stroked Ryan,Non-sensible,edin_semantics,emo_sem_emo_sem,0.878724541282281,2,1,1,1,1570904.00057922,116,B
45,1,30/1/96,20,M,236,The radio fixed Luke,Non-sensible,edin_semantics,emo_sem_emo_sem,0.902470455272123,2,1,1,1,1570905.64718464,112,B
45,1,30/1/96,20,M,237,Ben chewed the toffee,Sensible,edin_semantics,emo_sem_emo_sem,0.820187057834119,1,2,2,1,1570907.21139858,31,B
45,1,30/1/96,20,M,238,The hospital visited Tom,Non-sensible,edin_semantics,emo_sem_emo_sem,0.80737037723884,1,2,2,1,1570908.76402997,91,B
45,1,30/1/96,20,M,239,Jon trimmed the bushes,Sensible,edin_semantics,emo_sem_emo_sem,0.761594410287216,1,1,1,1,1570910.2693113,32,B
45,1,30/1/96,20,M,240,The hedge jumped Sara,Non-sensible,edin_semantics,emo_sem_emo_sem,0.726852552732453,1,1,1,1,1570911.73943767,92,B
45,1,30/1/96,20,M,241,Tim cleaned the floor,Sensible,edin_semantics,emo_sem_emo_sem,0.891485736938193,1,2,2,1,1570913.37426234,5,B
45,1,30/1/96,20,M,242,Ewan wrote the story,Sensible,edin_semantics,emo_sem_emo_sem,0.84449102752842,2,1,1,1,1570914.96199801,74,B
45,1,30/1/96,20,M,243,The shed built Rose,Non-sensible,edin_semantics,emo_sem_emo_sem,0.962145538302138,1,2,2,1,1570916.66741897,121,B
45,1,30/1/96,20,M,244,The bed sold Jay,Non-sensible,edin_semantics,emo_sem_emo_sem,0.879386510699987,2,2,2,1,1570918.29048406,113,B
45,1,30/1/96,20,M,245,The hotline dialed Hugh,Non-sensible,edin_semantics,emo_sem_emo_sem,0.868023019982502,1,1,1,1,1570919.90171002,138,B
45,1,30/1/96,20,M,246,Dan whisked the eggs,Sensible,edin_semantics,emo_sem_emo_sem,1.21991149359383,1,1,1,1,1570921.8658264,62,B
45,1,30/1/96,20,M,247,The report wrote Alex,Non-sensible,edin_semantics,emo_sem_emo_sem,0.961160922888666,2,2,2,1,1570923.57120471,149,B
45,1,30/1/96,20,M,248,The wallet carried Leo,Non-sensible,edin_semantics,emo_sem_emo_sem,0.878375275293365,1,1,1,1,1570925.19423612,150,B
45,1,30/1/96,20,M,249,Ryan entered the room,Sensible,edin_semantics,emo_sem_emo_sem,0.878710750024766,1,1,1,1,1570926.81727972,58,B
45,1,30/1/96,20,M,250,Jen weighed the flour,Sensible,edin_semantics,emo_sem_emo_sem,0.902489057043567,2,1,1,1,1570928.46386942,64,B
45,1,30/1/96,20,M,251,The debt paid Zoe,Non-sensible,edin_semantics,emo_sem_emo_sem,0.961410444229841,2,1,1,1,1570930.16921566,134,B
45,1,30/1/96,20,M,252,Phil chopped the herbs,Sensible,edin_semantics,emo_sem_emo_sem,0.961646174779162,2,2,2,1,1570931.87460968,27,B
45,1,30/1/96,20,M,253,The gum swallowed Owen,Non-sensible,edin_semantics,emo_sem_emo_sem,0.949554645922035,2,2,2,1,1570933.56820083,97,B
45,1,30/1/96,20,M,254,The perfume sniffed Tim,Non-sensible,edin_semantics,emo_sem_emo_sem,1.13763386919163,1,2,2,1,1570935.45000398,93,B
45,1,30/1/96,20,M,255,The beer drank Jack,Non-sensible,edin_semantics,emo_sem_emo_sem,1.9842259446159,1,2,2,1,1570938.17859709,135,B
45,1,30/1/96,20,M,256,John described the pen,Sensible,edin_semantics,emo_sem_emo_sem,0.926187504082918,1,1,1,1,1570939.84867131,42,B
45,1,30/1/96,20,M,257,Jeff watered the garden,Sensible,edin_semantics,emo_sem_emo_sem,1.03158691804856,1,1,1,1,1570941.62464336,54,B
45,1,30/1/96,20,M,258,Hugh pulled the lever,Sensible,edin_semantics,emo_sem_emo_sem,1.33769333106466,1,2,2,1,1570943.7063703,45,B
45,1,30/1/96,20,M,259,The report filed Ian,Non-sensible,edin_semantics,emo_sem_emo_sem,2.40780758508481,2,2,2,1,1570946.85835198,99,B
45,1,30/1/96,20,M,260,The trousers ironed Eve,Non-sensible,edin_semantics,emo_sem_emo_sem,0.937294417526573,1,1,1,1,1570948.54020728,130,B
45,1,30/1/96,20,M,261,Lily got the kettle,Sensible,edin_semantics,emo_sem_emo_sem,0.9846233187709,1,2,2,1,1570950.26913169,13,B
45,1,30/1/96,20,M,262,The church described Erin,Non-sensible,edin_semantics,emo_sem_emo_sem,0.891170788090676,1,2,2,1,1570951.90391787,117,B
45,1,30/1/96,20,M,263,Josh ironed the shirt,Sensible,edin_semantics,emo_sem_emo_sem,0.950295833870769,1,2,2,1,1570953.59750004,55,B
45,1,30/1/96,20,M,264,Mike paid the bill,Sensible,edin_semantics,emo_sem_emo_sem,0.726839082548395,2,2,2,1,1570955.06764149,59,B
45,1,30/1/96,20,M,265,Jen fixed the laptop,Sensible,edin_semantics,emo_sem_emo_sem,0.891300038900226,1,2,2,1,1570956.70248091,37,B
45,1,30/1/96,20,M,266,The invite mailed Ian,Non-sensible,edin_semantics,emo_sem_emo_sem,0.844395131571218,2,2,2,1,1570958.29025089,89,B
45,1,30/1/96,20,M,267,Joe wore the jumper,Sensible,edin_semantics,emo_sem_emo_sem,0.832197443814948,2,2,2,1,1570959.86622987,25,B
45,1,30/1/96,20,M,268,Matt offered the money,Sensible,edin_semantics,emo_sem_emo_sem,0.725903857965022,2,2,2,1,1570961.33636073,9,B
45,1,30/1/96,20,M,269,Rob mailed the parcel,Sensible,edin_semantics,emo_sem_emo_sem,0.714120221789926,2,1,1,1,1570962.79474549,14,B
45,1,30/1/96,20,M,270,Jon polished the coins,Sensible,edin_semantics,emo_sem_emo_sem,0.820001680636778,1,2,2,1,1570964.35903704,29,B
45,1,30/1/96,20,M,271,Liz scrubbed the bowl,Sensible,edin_semantics,emo_sem_emo_sem,0.937954462599009,1,1,1,1,1570966.04083461,56,B
45,1,30/1/96,20,M,272,Tom dialed the number,Sensible,edin_semantics,emo_sem_emo_sem,1.10253536934033,2,2,2,1,1570967.88741578,63,B
45,1,30/1/96,20,M,273,Ryan painted the picture,Sensible,edin_semantics,emo_sem_emo_sem,0.902342487359419,2,2,2,1,1570969.53391696,35,B
45,1,30/1/96,20,M,274,The button pushed Ian,Non-sensible,edin_semantics,emo_sem_emo_sem,0.867161561734974,2,2,2,1,1570971.14519264,101,B
45,1,30/1/96,20,M,275,Liz labeled the jar,Sensible,edin_semantics,emo_sem_emo_sem,1.16092179273255,1,2,2,1,1570973.05055632,61,B
45,1,30/1/96,20,M,276,Max kissed the mirror,Sensible,edin_semantics,emo_sem_emo_sem,1.32566947443411,1,2,2,1,1570975.12047301,23,B
45,1,30/1/96,20,M,277,The plate licked Jane,Non-sensible,edin_semantics,emo_sem_emo_sem,1.09113467484713,1,1,1,1,1570976.95523014,96,B
45,1,30/1/96,20,M,278,Liz sliced the tomato,Sensible,edin_semantics,emo_sem_emo_sem,0.973385871620849,1,2,2,1,1570978.67234718,3,B
45,1,30/1/96,20,M,279,The opera watched Adam,Non-sensible,edin_semantics,emo_sem_emo_sem,0.808067946694791,2,1,1,1,1570980.22487178,108,B
45,1,30/1/96,20,M,280,Erin posted the card,Sensible,edin_semantics,emo_sem_emo_sem,0.773175349924713,1,1,1,1,1570981.74202044,36,B
45,1,30/1/96,20,M,281,The dessert served Fred,Non-sensible,edin_semantics,emo_sem_emo_sem,0.737870305310935,2,2,2,1,1570983.22399075,145,B
45,1,30/1/96,20,M,282,Jake dusted the shelf,Sensible,edin_semantics,emo_sem_emo_sem,1.07901396043599,1,2,2,1,1570985.04691004,47,B
45,1,30/1/96,20,M,283,Mary visited the museum,Sensible,edin_semantics,emo_sem_emo_sem,0.749945156509057,1,1,1,1,1570986.5406101,16,B
45,1,30/1/96,20,M,284,Tim pulled the handle,Sensible,edin_semantics,emo_sem_emo_sem,0.69142242660746,1,2,2,1,1570987.97549141,73,B
45,1,30/1/96,20,M,285,The problem solved Phil,Non-sensible,edin_semantics,emo_sem_emo_sem,0.809207791695371,1,2,2,1,1570989.52792684,109,B
45,1,30/1/96,20,M,286,The plants watered Luke,Non-sensible,edin_semantics,emo_sem_emo_sem,0.843806286808103,2,2,2,1,1570991.11569041,129,B
45,1,30/1/96,20,M,287,The rope pulled Andy,Non-sensible,edin_semantics,emo_sem_emo_sem,0.725398079724982,2,1,1,1,1570992.58585335,148,B
45,1,30/1/96,20,M,288,Matt drank the juice,Sensible,edin_semantics,emo_sem_emo_sem,0.89162011933513,2,1,1,1,1570994.22066583,60,B
45,1,30/1/96,20,M,289,The office entered Joe,Non-sensible,edin_semantics,emo_sem_emo_sem,0.796926074894145,1,2,2,1,1570995.7613497,133,B
45,1,30/1/96,20,M,290,The internet searched Max,Non-sensible,edin_semantics,emo_sem_emo_sem,0.796803238568828,1,2,2,1,1570997.30213011,85,B
45,1,30/1/96,20,M,291,Mary iced the cake,Sensible,edin_semantics,emo_sem_emo_sem,0.690750835230574,2,1,1,1,1570998.73692546,44,B
45,1,30/1/96,20,M,292,The ribbon cut Lucy,Non-sensible,edin_semantics,emo_sem_emo_sem,0.597293814411387,2,2,2,1,1571000.07774839,95,B
45,1,30/1/96,20,M,293,Ella watched the movie,Sensible,edin_semantics,emo_sem_emo_sem,0.689922090154141,2,2,2,1,1571001.51258416,33,B
45,1,30/1/96,20,M,294,Leo stored the wine,Sensible,edin_semantics,emo_sem_emo_sem,0.679005044512451,1,1,1,1,1571002.93568568,52,B
45,1,30/1/96,20,M,295,The message typed Eve,Non-sensible,edin_semantics,emo_sem_emo_sem,0.925396604230627,2,1,1,1,1571004.60578845,124,B
45,1,30/1/96,20,M,296,Beth wiped the table,Sensible,edin_semantics,emo_sem_emo_sem,0.760808642022312,1,1,1,1,1571006.1111955,40,B
45,1,30/1/96,20,M,297,The radio got Ben,Non-sensible,edin_semantics,emo_sem_emo_sem,0.760860598878935,2,1,1,1,1571007.61661698,88,B
45,1,30/1/96,20,M,298,Mark washed the dishes,Sensible,edin_semantics,emo_sem_emo_sem,0.83137126499787,2,2,2,1,1571009.19266586,57,B
45,1,30/1/96,20,M,299,Tom knitted the scarf,Sensible,edin_semantics,emo_sem_emo_sem,0.702276611002162,2,1,1,1,1571010.63934203,66,B
45,1,30/1/96,20,M,300,The rose kissed Hugh,Non-sensible,edin_semantics,emo_sem_emo_sem,0.760918970219791,2,1,1,1,1571012.14471412,98,B
