subject_column,AssignedList_column,subject_dob_column,subject_age_column,subject_gender_column,trialnum_column,Stim_column,Type_column,Experiment_column,OrderGroup_column,ReactionTime_column,StimSide_column,StimPosition_column,Response_column,Valid_column,TrialEndSecs_column,PairID_column,List_column
46,2,11/1/92,24,f,1,Lucy wiped the desk,Sensible,edin_semantics,sem_emo_sem_emo,1.02396272192709,1,2,2,1,1637573.99358268,115,A
46,2,11/1/92,24,f,2,Ella mashed the turnip,Sensible,edin_semantics,sem_emo_sem_emo,0.862906225956976,1,2,2,1,1637575.60482276,103,A
46,2,11/1/92,24,f,3,Liam mixed the nuts,Sensible,edin_semantics,sem_emo_sem_emo,1.14625422726385,2,2,2,1,1637577.49831878,83,A
46,2,11/1/92,24,f,4,The shelf dusted Jake,Non-sensible,edin_semantics,sem_emo_sem_emo,0.81728933705017,2,2,2,1,1637579.06260969,47,A
46,2,11/1/92,24,f,5,The room searched Jen,Non-sensible,edin_semantics,sem_emo_sem_emo,1.39578821836039,2,1,1,1,1637581.20315475,10,A
46,2,11/1/92,24,f,6,Ian dented the bowl,Sensible,edin_semantics,sem_emo_sem_emo,0.960609602043405,2,1,1,1,1637582.90845897,146,A
46,2,11/1/92,24,f,7,Adam watched the opera,Sensible,edin_semantics,sem_emo_sem_emo,0.867289850488305,2,1,1,1,1637584.5197773,108,A
46,2,11/1/92,24,f,8,Luke fixed the radio,Sensible,edin_semantics,sem_emo_sem_emo,1.39593991986476,1,1,1,1,1637586.66029895,112,A
46,2,11/1/92,24,f,9,The floor cleaned Tim,Non-sensible,edin_semantics,sem_emo_sem_emo,0.984838843578473,1,2,2,1,1637588.38924614,5,A
46,2,11/1/92,24,f,10,The garden watered Jeff,Non-sensible,edin_semantics,sem_emo_sem_emo,1.58458265126683,2,1,1,1,1637590.71796439,54,A
46,2,11/1/92,24,f,11,Ian mailed the invite,Sensible,edin_semantics,sem_emo_sem_emo,0.913842926034704,2,2,2,1,1637592.37629058,89,A
46,2,11/1/92,24,f,12,Eve typed the message,Sensible,edin_semantics,sem_emo_sem_emo,1.07868650346063,1,1,1,1,1637594.19918838,124,A
46,2,11/1/92,24,f,13,Leo passed the salt,Sensible,edin_semantics,sem_emo_sem_emo,0.902051913319156,2,1,1,1,1637595.84576173,118,A
46,2,11/1/92,24,f,14,Joe iced the donut,Sensible,edin_semantics,sem_emo_sem_emo,1.27874307869934,2,2,2,1,1637597.86871001,119,A
46,2,11/1/92,24,f,15,The wall punched Jane,Non-sensible,edin_semantics,sem_emo_sem_emo,0.901981996139511,2,1,1,1,1637599.51525384,50,A
46,2,11/1/92,24,f,16,The card posted Erin,Non-sensible,edin_semantics,sem_emo_sem_emo,1.71370296296664,1,1,1,1,1637601.97339614,36,A
46,2,11/1/92,24,f,17,The pen described John,Non-sensible,edin_semantics,sem_emo_sem_emo,1.43103104340844,1,1,1,1,1637604.14916863,42,A
46,2,11/1/92,24,f,18,Leo carried the wallet,Sensible,edin_semantics,sem_emo_sem_emo,1.1487164075952,1,1,1,1,1637606.04274675,150,A
46,2,11/1/92,24,f,19,The story wrote Ewan,Non-sensible,edin_semantics,sem_emo_sem_emo,1.85456553776748,1,1,1,1,1637608.64199633,74,A
46,2,11/1/92,24,f,20,Jay painted the portrait,Sensible,edin_semantics,sem_emo_sem_emo,1.67799541261047,2,1,1,1,1637611.06477328,110,A
46,2,11/1/92,24,f,21,The sheets counted Bill,Non-sensible,edin_semantics,sem_emo_sem_emo,1.51289814407937,1,1,1,1,1637613.32293789,48,A
46,2,11/1/92,24,f,22,Ben climbed the stairs,Sensible,edin_semantics,sem_emo_sem_emo,1.76078362576663,2,2,2,1,1637615.82806238,143,A
46,2,11/1/92,24,f,23,The thread measured Amy,Non-sensible,edin_semantics,sem_emo_sem_emo,0.984572965651751,2,2,2,1,1637617.5569188,51,A
46,2,11/1/92,24,f,24,The hill climbed Luke,Non-sensible,edin_semantics,sem_emo_sem_emo,1.11338634649292,2,1,1,1,1637619.4152711,68,A
46,2,11/1/92,24,f,25,Phil cancelled the party,Sensible,edin_semantics,sem_emo_sem_emo,1.26642576185986,1,1,1,1,1637621.42639245,82,A
46,2,11/1/92,24,f,26,Tom grated the carrots,Sensible,edin_semantics,sem_emo_sem_emo,1.09003524086438,1,1,1,1,1637623.26106779,140,A
46,2,11/1/92,24,f,27,The picture painted Ryan,Non-sensible,edin_semantics,sem_emo_sem_emo,2.43079852010123,2,2,2,1,1637626.43665971,35,A
46,2,11/1/92,24,f,28,Rob measured the curtains,Sensible,edin_semantics,sem_emo_sem_emo,1.80740244919434,1,1,1,1,1637628.98884594,126,A
46,2,11/1/92,24,f,29,Alex wrote the report,Sensible,edin_semantics,sem_emo_sem_emo,2.46622736332938,2,2,2,1,1637632.19954246,149,A
46,2,11/1/92,24,f,30,The plans cancelled Ian,Non-sensible,edin_semantics,sem_emo_sem_emo,1.16046059480868,2,2,2,1,1637634.10491095,7,A
46,2,11/1/92,24,f,31,Lucy cut the ribbon,Sensible,edin_semantics,sem_emo_sem_emo,0.890231073601171,1,2,2,1,1637635.73969617,95,A
46,2,11/1/92,24,f,32,The gun carried Ryan,Non-sensible,edin_semantics,sem_emo_sem_emo,0.901757169980556,2,2,2,1,1637637.38625797,75,A
46,2,11/1/92,24,f,33,Tim took the ticket,Sensible,edin_semantics,sem_emo_sem_emo,1.33724496210925,1,1,1,1,1637639.46800192,128,A
46,2,11/1/92,24,f,34,The bucket lent Max,Non-sensible,edin_semantics,sem_emo_sem_emo,2.33708235621452,2,2,2,1,1637642.54943091,19,A
46,2,11/1/92,24,f,35,The tree hugged Amy,Non-sensible,edin_semantics,sem_emo_sem_emo,2.5714638507925,2,2,2,1,1637645.86606341,11,A
46,2,11/1/92,24,f,36,The spoon licked Will,Non-sensible,edin_semantics,sem_emo_sem_emo,1.09022639109753,2,2,2,1,1637647.70081155,21,A
46,2,11/1/92,24,f,37,The eggs whisked Dan,Non-sensible,edin_semantics,sem_emo_sem_emo,1.47834422928281,2,1,1,1,1637649.92368491,62,A
46,2,11/1/92,24,f,38,The room entered Ryan,Non-sensible,edin_semantics,sem_emo_sem_emo,1.56041306396946,1,1,1,1,1637652.22889138,58,A
46,2,11/1/92,24,f,39,Jack posted the gift,Sensible,edin_semantics,sem_emo_sem_emo,2.30152650712989,1,2,2,1,1637655.2750288,111,A
46,2,11/1/92,24,f,40,Jane licked the plate,Sensible,edin_semantics,sem_emo_sem_emo,1.36087317112833,1,1,1,1,1637657.380298,96,A
46,2,11/1/92,24,f,41,The lorry dented Lily,Non-sensible,edin_semantics,sem_emo_sem_emo,1.85438721626997,2,2,2,1,1637659.97950845,71,A
46,2,11/1/92,24,f,42,Erin punched the monitor,Sensible,edin_semantics,sem_emo_sem_emo,1.17248348938301,1,2,2,1,1637661.89658617,125,A
46,2,11/1/92,24,f,43,Tom whisked the cream,Sensible,edin_semantics,sem_emo_sem_emo,1.07854506513104,1,2,2,1,1637663.71956672,137,A
46,2,11/1/92,24,f,44,The number dialed Tom,Non-sensible,edin_semantics,sem_emo_sem_emo,2.59587943181396,2,2,2,1,1637667.0596985,63,A
46,2,11/1/92,24,f,45,Tom visited the hospital,Sensible,edin_semantics,sem_emo_sem_emo,0.937689546495676,1,2,2,1,1637668.74157079,91,A
46,2,11/1/92,24,f,46,Ben got the radio,Sensible,edin_semantics,sem_emo_sem_emo,0.937025652499869,2,1,1,1,1637670.42342801,88,A
46,2,11/1/92,24,f,47,Beth washed the pan,Sensible,edin_semantics,sem_emo_sem_emo,1.73710538400337,2,1,1,1,1637672.90501153,132,A
46,2,11/1/92,24,f,48,The kettle got Lily,Non-sensible,edin_semantics,sem_emo_sem_emo,1.12520943116397,1,2,2,1,1637674.77501597,13,A
46,2,11/1/92,24,f,49,Alex dusted the house,Sensible,edin_semantics,sem_emo_sem_emo,2.13712905324064,1,1,1,1,1637677.65651893,122,A
46,2,11/1/92,24,f,50,The ham ate Tim,Non-sensible,edin_semantics,sem_emo_sem_emo,0.91397442179732,1,2,2,1,1637679.31502921,67,A
46,2,11/1/92,24,f,51,The toffee chewed Ben,Non-sensible,edin_semantics,sem_emo_sem_emo,1.56061479798518,2,2,2,1,1637681.62002785,31,A
46,2,11/1/92,24,f,52,Sam sucked the candy,Sensible,edin_semantics,sem_emo_sem_emo,1.07820766605437,1,2,2,1,1637683.44308312,87,A
46,2,11/1/92,24,f,53,The cheese grated Andy,Non-sensible,edin_semantics,sem_emo_sem_emo,1.45447483751923,2,2,2,1,1637685.64238247,65,A
46,2,11/1/92,24,f,54,The box lifted Kate,Non-sensible,edin_semantics,sem_emo_sem_emo,1.5607636126224,2,2,2,1,1637687.947596,69,A
46,2,11/1/92,24,f,55,Hugh kissed the rose,Sensible,edin_semantics,sem_emo_sem_emo,1.23134393920191,2,1,1,1,1637689.92344982,98,A
46,2,11/1/92,24,f,56,The parcel mailed Rob,Non-sensible,edin_semantics,sem_emo_sem_emo,0.878626079531386,2,1,1,1,1637691.5464559,14,A
46,2,11/1/92,24,f,57,Jay squeezed the lemon,Sensible,edin_semantics,sem_emo_sem_emo,1.90211092610843,1,1,1,1,1637694.19275182,76,A
46,2,11/1/92,24,f,58,Jack drank the beer,Sensible,edin_semantics,sem_emo_sem_emo,0.960738853085786,2,2,2,1,1637695.89808106,135,A
46,2,11/1/92,24,f,59,Rose built the shed,Sensible,edin_semantics,sem_emo_sem_emo,1.52543547586538,2,2,2,1,1637698.16801552,121,A
46,2,11/1/92,24,f,60,The papers filed Lara,Non-sensible,edin_semantics,sem_emo_sem_emo,2.41903829667717,2,1,1,1,1637701.33178019,24,A
46,2,11/1/92,24,f,61,Erin tidied the garage,Sensible,edin_semantics,sem_emo_sem_emo,1.41968711675145,2,2,2,1,1637703.49583511,77,A
46,2,11/1/92,24,f,62,The herbs chopped Phil,Non-sensible,edin_semantics,sem_emo_sem_emo,0.937262024497613,1,2,2,1,1637705.17765449,27,A
46,2,11/1/92,24,f,63,Ian pushed the button,Sensible,edin_semantics,sem_emo_sem_emo,1.43135144445114,2,2,2,1,1637707.35346386,101,A
46,2,11/1/92,24,f,64,The room tidied Sam,Non-sensible,edin_semantics,sem_emo_sem_emo,1.12557409168221,2,1,1,1,1637709.22350935,2,A
46,2,11/1/92,24,f,65,The fruits mixed Jack,Non-sensible,edin_semantics,sem_emo_sem_emo,2.06638682633638,1,1,1,1,1637712.03443076,8,A
46,2,11/1/92,24,f,66,The jar labeled Liz,Non-sensible,edin_semantics,sem_emo_sem_emo,2.54892192594707,1,2,1,0,1637715.32761209,61,A
46,2,11/1/92,24,f,67,Ryan stroked the blanket,Sensible,edin_semantics,sem_emo_sem_emo,1.466636283556,1,1,1,1,1637717.53867102,116,A
46,2,11/1/92,24,f,68,Luke read the poster,Sensible,edin_semantics,sem_emo_sem_emo,2.1013666591607,2,2,2,1,1637720.38491126,79,A
46,2,11/1/92,24,f,69,Fred lent the car,Sensible,edin_semantics,sem_emo_sem_emo,1.70189751777798,1,1,1,1,1637722.83132829,94,A
46,2,11/1/92,24,f,70,Liz weighed the sugar,Sensible,edin_semantics,sem_emo_sem_emo,2.91328679444268,2,2,2,1,1637726.48897583,139,A
46,2,11/1/92,24,f,71,Bill trimmed the hair,Sensible,edin_semantics,sem_emo_sem_emo,1.0781948370859,2,2,2,1,1637728.31194098,107,A
46,2,11/1/92,24,f,72,The garlic crushed Erin,Non-sensible,edin_semantics,sem_emo_sem_emo,1.89017655071802,1,1,1,1,1637730.94638463,6,A
46,2,11/1/92,24,f,73,Eve ironed the trousers,Sensible,edin_semantics,sem_emo_sem_emo,2.25481082568876,1,1,1,1,1637733.94551355,130,A
46,2,11/1/92,24,f,74,The wine stored Leo,Non-sensible,edin_semantics,sem_emo_sem_emo,1.61944734514691,1,1,1,1,1637736.3095035,52,A
46,2,11/1/92,24,f,75,The towels passed Phil,Non-sensible,edin_semantics,sem_emo_sem_emo,0.819480187026784,1,2,2,1,1637737.87377548,43,A
46,2,11/1/92,24,f,76,The mirror kissed Max,Non-sensible,edin_semantics,sem_emo_sem_emo,2.23069351585582,2,2,2,1,1637740.84935285,23,A
46,2,11/1/92,24,f,77,Zoe paid the debt,Sensible,edin_semantics,sem_emo_sem_emo,1.24336619232781,1,1,1,1,1637742.83694701,134,A
46,2,11/1/92,24,f,78,The letter typed Phil,Non-sensible,edin_semantics,sem_emo_sem_emo,1.17277534608729,1,2,2,1,1637744.75401736,49,A
46,2,11/1/92,24,f,79,Amy lifted the crate,Sensible,edin_semantics,sem_emo_sem_emo,1.96049318020232,2,1,1,1,1637747.45913172,144,A
46,2,11/1/92,24,f,80,The ball squeezed Josh,Non-sensible,edin_semantics,sem_emo_sem_emo,1.83102296106517,2,2,2,1,1637750.03477233,1,A
46,2,11/1/92,24,f,81,Kate wore the dress,Sensible,edin_semantics,sem_emo_sem_emo,2.1949083507061,1,1,1,1,1637752.97511841,100,A
46,2,11/1/92,24,f,82,Anna polished the trophy,Sensible,edin_semantics,sem_emo_sem_emo,1.63119602249935,1,1,1,1,1637755.35086569,104,A
46,2,11/1/92,24,f,83,Ryan knitted the socks,Sensible,edin_semantics,sem_emo_sem_emo,1.07832312583923,1,2,2,1,1637757.17384784,141,A
46,2,11/1/92,24,f,84,Ian labeled the box,Sensible,edin_semantics,sem_emo_sem_emo,4.17202614014968,1,1,1,1,1637762.09003396,136,A
46,2,11/1/92,24,f,85,The paper cut Jon,Non-sensible,edin_semantics,sem_emo_sem_emo,7.84099644399248,1,1,1,1,1637770.6756272,20,A
46,2,11/1/92,24,f,86,The table wiped Beth,Non-sensible,edin_semantics,sem_emo_sem_emo,3.2894843693357,1,1,1,1,1637774.70976739,40,A
46,2,11/1/92,24,f,87,Max kicked the door,Sensible,edin_semantics,sem_emo_sem_emo,0.99579148972407,1,1,1,1,1637776.45034234,114,A
46,2,11/1/92,24,f,88,Dan brushed the hair,Sensible,edin_semantics,sem_emo_sem_emo,1.83104284573346,1,2,2,1,1637779.02607788,147,A
46,2,11/1/92,24,f,89,John carried the kettle,Sensible,edin_semantics,sem_emo_sem_emo,0.90196403558366,1,2,2,1,1637780.67261466,105,A
46,2,11/1/92,24,f,90,The scarf knitted Tom,Non-sensible,edin_semantics,sem_emo_sem_emo,1.43118627252989,1,1,1,1,1637782.84847343,66,A
46,2,11/1/92,24,f,91,The tomato sliced Liz,Non-sensible,edin_semantics,sem_emo_sem_emo,1.86669042147696,2,2,2,1,1637785.45946334,3,A
46,2,11/1/92,24,f,92,Max searched the internet,Sensible,edin_semantics,sem_emo_sem_emo,2.27799387299456,2,2,2,1,1637788.48209924,85,A
46,2,11/1/92,24,f,93,Hugh dialed the hotline,Sensible,edin_semantics,sem_emo_sem_emo,1.03127357293852,2,1,1,1,1637790.25799367,138,A
46,2,11/1/92,24,f,94,Kate hugged the pillow,Sensible,edin_semantics,sem_emo_sem_emo,1.51396518503316,1,1,1,1,1637792.51620543,86,A
46,2,11/1/92,24,f,95,The laptop fixed Jen,Non-sensible,edin_semantics,sem_emo_sem_emo,1.0783789313864,1,2,2,1,1637794.33912215,37,A
46,2,11/1/92,24,f,96,The jumper wore Joe,Non-sensible,edin_semantics,sem_emo_sem_emo,2.80782195343636,2,2,2,1,1637797.89102486,25,A
46,2,11/1/92,24,f,97,Liam sliced the onion,Sensible,edin_semantics,sem_emo_sem_emo,1.19601900991984,1,1,1,1,1637799.83158839,78,A
46,2,11/1/92,24,f,98,Fred chopped the carrots,Sensible,edin_semantics,sem_emo_sem_emo,1.1258200854063,2,1,1,1,1637801.70160085,102,A
46,2,11/1/92,24,f,99,The movie watched Ella,Non-sensible,edin_semantics,sem_emo_sem_emo,2.06616007606499,2,2,2,1,1637804.51253124,33,A
46,2,11/1/92,24,f,100,The trolley pushed Matt,Non-sensible,edin_semantics,sem_emo_sem_emo,0.901676989626139,2,1,1,1,1637806.1591543,26,A
46,2,11/1/92,24,f,101,Adam chewed the fat,Sensible,edin_semantics,sem_emo_sem_emo,1.13705272157677,2,1,1,1,1637808.04090292,106,A
46,2,11/1/92,24,f,102,The lever pulled Hugh,Non-sensible,edin_semantics,sem_emo_sem_emo,1.8891932182014,1,2,2,1,1637810.67539436,45,A
46,2,11/1/92,24,f,103,Josh taught the rules,Sensible,edin_semantics,sem_emo_sem_emo,0.902057686354965,2,1,1,1,1637812.32200266,90,A
46,2,11/1/92,24,f,104,Owen swallowed the gum,Sensible,edin_semantics,sem_emo_sem_emo,0.819372424622998,1,2,2,1,1637813.8862259,97,A
46,2,11/1/92,24,f,105,Jack cleaned the bath,Sensible,edin_semantics,sem_emo_sem_emo,1.91315561928786,1,1,1,1,1637816.54419032,80,A
46,2,11/1/92,24,f,106,The handle pulled Tim,Non-sensible,edin_semantics,sem_emo_sem_emo,1.56037072860636,2,2,2,1,1637818.84942405,73,A
46,2,11/1/92,24,f,107,The flour weighed Jen,Non-sensible,edin_semantics,sem_emo_sem_emo,1.07831029687077,1,1,1,1,1637820.67236258,64,A
46,2,11/1/92,24,f,108,Mike ate the steak,Sensible,edin_semantics,sem_emo_sem_emo,1.1720700787846,1,1,1,1,1637822.58948007,142,A
46,2,11/1/92,24,f,109,The house built Kate,Non-sensible,edin_semantics,sem_emo_sem_emo,1.41974356374703,1,1,1,1,1637824.75350581,46,A
46,2,11/1/92,24,f,110,The pill swallowed Luke,Non-sensible,edin_semantics,sem_emo_sem_emo,0.890207661082968,2,1,1,1,1637826.38827852,22,A
46,2,11/1/92,24,f,111,The lolly sucked Leah,Non-sensible,edin_semantics,sem_emo_sem_emo,1.12492719618604,1,1,1,1,1637828.25830381,12,A
46,2,11/1/92,24,f,112,The puzzle solved Joe,Non-sensible,edin_semantics,sem_emo_sem_emo,0.820181284798309,2,1,1,1,1637829.82268708,34,A
46,2,11/1/92,24,f,113,Jay sold the bed,Sensible,edin_semantics,sem_emo_sem_emo,2.83003577962518,2,2,2,1,1637833.39797522,113,A
46,2,11/1/92,24,f,114,Tom offered the sweets,Sensible,edin_semantics,sem_emo_sem_emo,0.866878364467993,2,1,1,1,1637835.00921658,84,A
46,2,11/1/92,24,f,115,The juice drank Matt,Non-sensible,edin_semantics,sem_emo_sem_emo,1.56057599047199,1,1,1,1,1637837.31442241,60,A
46,2,11/1/92,24,f,116,The folder carried Dan,Non-sensible,edin_semantics,sem_emo_sem_emo,2.46617219923064,1,1,1,1,1637840.52526774,30,A
46,2,11/1/92,24,f,117,The lesson taught Eve,Non-sensible,edin_semantics,sem_emo_sem_emo,1.50109398178756,2,2,2,1,1637842.77159163,15,A
46,2,11/1/92,24,f,118,Erin described the church,Sensible,edin_semantics,sem_emo_sem_emo,0.936951566021889,1,2,2,1,1637844.45348285,117,A
46,2,11/1/92,24,f,119,The dish served Kate,Non-sensible,edin_semantics,sem_emo_sem_emo,2.33697972516529,1,1,1,1,1637847.53496219,70,A
46,2,11/1/92,24,f,120,The money offered Matt,Non-sensible,edin_semantics,sem_emo_sem_emo,2.93637394625694,1,2,2,1,1637851.21618407,9,A
46,2,11/1/92,24,f,121,The shirt ironed Josh,Non-sensible,edin_semantics,sem_emo_sem_emo,2.13681795308366,2,2,2,1,1637854.09767676,55,A
46,2,11/1/92,24,f,122,The dishes washed Mark,Non-sensible,edin_semantics,sem_emo_sem_emo,1.0428464950528,2,2,2,1,1637855.88530158,57,A
46,2,11/1/92,24,f,123,Josh scrubbed the pot,Sensible,edin_semantics,sem_emo_sem_emo,2.20726607833058,1,2,2,1,1637858.83737485,131,A
46,2,11/1/92,24,f,124,The fence jumped Jon,Non-sensible,edin_semantics,sem_emo_sem_emo,3.26570926955901,2,2,2,1,1637862.84789324,17,A
46,2,11/1/92,24,f,125,Joe entered the office,Sensible,edin_semantics,sem_emo_sem_emo,2.39568815333769,2,2,2,1,1637865.9881272,133,A
46,2,11/1/92,24,f,126,The milk sniffed Phil,Non-sensible,edin_semantics,sem_emo_sem_emo,2.23067266889848,2,1,1,1,1637868.96377288,18,A
46,2,11/1/92,24,f,127,The bowl scrubbed Liz,Non-sensible,edin_semantics,sem_emo_sem_emo,1.24259453592822,2,1,1,1,1637870.95137057,56,A
46,2,11/1/92,24,f,128,The sofa sold Carl,Non-sensible,edin_semantics,sem_emo_sem_emo,4.52458780864254,1,1,1,1,1637876.22037654,38,A
46,2,11/1/92,24,f,129,Phil solved the problem,Sensible,edin_semantics,sem_emo_sem_emo,1.14928151923232,2,2,2,1,1637878.11394376,109,A
46,2,11/1/92,24,f,130,Luke watered the plants,Sensible,edin_semantics,sem_emo_sem_emo,0.972375919111073,1,2,2,1,1637879.83106113,129,A
46,2,11/1/92,24,f,131,Josh crushed the ice,Sensible,edin_semantics,sem_emo_sem_emo,0.901122461771593,1,2,2,1,1637881.47760144,81,A
46,2,11/1/92,24,f,132,The photo took Beth,Non-sensible,edin_semantics,sem_emo_sem_emo,1.23109377641231,1,2,2,1,1637883.45351139,53,A
46,2,11/1/92,24,f,133,The cake iced Mary,Non-sensible,edin_semantics,sem_emo_sem_emo,1.14878792851232,2,1,1,1,1637885.34700549,44,A
46,2,11/1/92,24,f,134,The bushes trimmed Jon,Non-sensible,edin_semantics,sem_emo_sem_emo,0.996396370930597,2,1,1,1,1637887.08771418,32,A
46,2,11/1/92,24,f,135,The bill paid Mike,Non-sensible,edin_semantics,sem_emo_sem_emo,2.50132137327455,2,2,2,1,1637890.33378822,59,A
46,2,11/1/92,24,f,136,The coins polished Jon,Non-sensible,edin_semantics,sem_emo_sem_emo,1.43115387950093,2,2,2,1,1637892.50959407,29,A
46,2,11/1/92,24,f,137,The potatoes mashed Will,Non-sensible,edin_semantics,sem_emo_sem_emo,1.36030838033184,2,1,1,1,1637894.61485974,28,A
46,2,11/1/92,24,f,138,Emma pulled the rope,Sensible,edin_semantics,sem_emo_sem_emo,2.80730206333101,1,1,1,1,1637898.16669318,120,A
46,2,11/1/92,24,f,139,Fred served the dessert,Sensible,edin_semantics,sem_emo_sem_emo,0.83097581518814,1,2,2,1,1637899.74275361,145,A
46,2,11/1/92,24,f,140,Lucy counted the shoes,Sensible,edin_semantics,sem_emo_sem_emo,0.972265590913594,1,2,2,1,1637901.45987836,123,A
46,2,11/1/92,24,f,141,Andy pulled the rope,Sensible,edin_semantics,sem_emo_sem_emo,0.937155544990674,2,1,1,1,1637903.14168843,148,A
46,2,11/1/92,24,f,142,The book read Sean,Non-sensible,edin_semantics,sem_emo_sem_emo,2.50094420462847,1,1,1,1,1637906.38773297,4,A
46,2,11/1/92,24,f,143,The bike kicked Matt,Non-sensible,edin_semantics,sem_emo_sem_emo,0.83123624115251,1,2,2,1,1637907.96375588,39,A
46,2,11/1/92,24,f,144,The museum visited Mary,Non-sensible,edin_semantics,sem_emo_sem_emo,1.00796287832782,1,1,1,1,1637909.71616675,16,A
46,2,11/1/92,24,f,145,Fred stored the rice,Sensible,edin_semantics,sem_emo_sem_emo,2.18405031738803,2,2,2,1,1637912.64467948,127,A
46,2,11/1/92,24,f,146,The fur stroked Rob,Non-sensible,edin_semantics,sem_emo_sem_emo,1.39631356066093,2,2,2,1,1637914.78525245,41,A
46,2,11/1/92,24,f,147,The teeth brushed Carl,Non-sensible,edin_semantics,sem_emo_sem_emo,1.2667054310441,1,1,1,1,1637916.79637091,72,A
46,2,11/1/92,24,f,148,Ian filed the report,Sensible,edin_semantics,sem_emo_sem_emo,0.972897412721068,1,2,2,1,1637918.51351233,99,A
46,2,11/1/92,24,f,149,Tim sniffed the perfume,Sensible,edin_semantics,sem_emo_sem_emo,0.772250388748944,1,2,2,1,1637920.03071231,93,A
46,2,11/1/92,24,f,150,Sara jumped the hedge,Sensible,edin_semantics,sem_emo_sem_emo,1.19567198888399,2,1,1,1,1637921.97133197,92,A
46,2,11/1/92,24,f,151,Jake dusted the shelf,Sensible,edin_semantics,sem_emo_sem_emo,1.44692152063362,1,1,1,1,1637941.53013726,47,B
46,2,11/1/92,24,f,152,The garage tidied Erin,Non-sensible,edin_semantics,sem_emo_sem_emo,1.05122502846643,2,1,1,1,1637943.32957234,77,B
46,2,11/1/92,24,f,153,Tim ate the ham,Sensible,edin_semantics,sem_emo_sem_emo,0.936865612631664,2,1,1,1,1637945.01145618,67,B
46,2,11/1/92,24,f,154,Will licked the spoon,Sensible,edin_semantics,sem_emo_sem_emo,0.865616965806112,1,1,1,1,1637946.62273378,21,B
46,2,11/1/92,24,f,155,The ice crushed Josh,Non-sensible,edin_semantics,sem_emo_sem_emo,0.806910141604021,1,1,1,1,1637948.17520834,81,B
46,2,11/1/92,24,f,156,The dessert served Fred,Non-sensible,edin_semantics,sem_emo_sem_emo,0.842366566881537,2,1,1,1,1637949.76296165,145,B
46,2,11/1/92,24,f,157,The radio got Ben,Non-sensible,edin_semantics,sem_emo_sem_emo,1.66608733637258,1,2,2,1,1637952.1740098,88,B
46,2,11/1/92,24,f,158,Phil sniffed the milk,Sensible,edin_semantics,sem_emo_sem_emo,1.07719482691027,1,2,2,1,1637953.9969865,18,B
46,2,11/1/92,24,f,159,Rob mailed the parcel,Sensible,edin_semantics,sem_emo_sem_emo,0.794806425226852,1,2,2,1,1637955.53770725,14,B
46,2,11/1/92,24,f,160,The poster read Luke,Non-sensible,edin_semantics,sem_emo_sem_emo,0.724808272439986,2,1,1,1,1637957.00782465,79,B
46,2,11/1/92,24,f,161,Ella watched the movie,Sensible,edin_semantics,sem_emo_sem_emo,1.30111983208917,2,1,1,1,1637959.05426098,33,B
46,2,11/1/92,24,f,162,The report filed Ian,Non-sensible,edin_semantics,sem_emo_sem_emo,1.34810556098819,1,1,1,1,1637961.14779722,99,B
46,2,11/1/92,24,f,163,Ryan entered the room,Sensible,edin_semantics,sem_emo_sem_emo,0.936476577073336,2,2,2,1,1637962.8296198,58,B
46,2,11/1/92,24,f,164,The party cancelled Phil,Non-sensible,edin_semantics,sem_emo_sem_emo,0.995644278591499,1,2,2,1,1637964.57023741,82,B
46,2,11/1/92,24,f,165,Jack mixed the fruits,Sensible,edin_semantics,sem_emo_sem_emo,0.936878120526671,1,2,1,0,1637966.25210586,8,B
46,2,11/1/92,24,f,166,The plants watered Luke,Non-sensible,edin_semantics,sem_emo_sem_emo,0.795253832126036,2,1,1,1,1637967.79281667,129,B
46,2,11/1/92,24,f,167,The pillow hugged Kate,Non-sensible,edin_semantics,sem_emo_sem_emo,0.759287138236687,2,2,2,1,1637969.29824392,86,B
46,2,11/1/92,24,f,168,Matt offered the money,Sensible,edin_semantics,sem_emo_sem_emo,0.654253347078338,2,1,1,1,1637970.69787535,9,B
46,2,11/1/92,24,f,169,Carl sold the sofa,Sensible,edin_semantics,sem_emo_sem_emo,0.760590230580419,2,2,2,1,1637972.20328528,38,B
46,2,11/1/92,24,f,170,Liz scrubbed the bowl,Sensible,edin_semantics,sem_emo_sem_emo,1.24230299983174,1,2,2,1,1637974.19092338,56,B
46,2,11/1/92,24,f,171,The car lent Fred,Non-sensible,edin_semantics,sem_emo_sem_emo,1.88871341850609,2,2,2,1,1637976.82535485,94,B
46,2,11/1/92,24,f,172,Dan carried the folder,Sensible,edin_semantics,sem_emo_sem_emo,0.748437443980947,2,2,2,1,1637978.31912771,30,B
46,2,11/1/92,24,f,173,The rope pulled Emma,Non-sensible,edin_semantics,sem_emo_sem_emo,0.725014496827498,2,2,2,1,1637979.78919572,120,B
46,2,11/1/92,24,f,174,Ryan carried the gun,Sensible,edin_semantics,sem_emo_sem_emo,0.795655696419999,2,1,1,1,1637981.32996394,75,B
46,2,11/1/92,24,f,175,Joe solved the puzzle,Sensible,edin_semantics,sem_emo_sem_emo,0.807416561059654,2,2,2,1,1637982.88241348,34,B
46,2,11/1/92,24,f,176,Lily got the kettle,Sensible,edin_semantics,sem_emo_sem_emo,0.725044965278357,2,1,1,1,1637984.35256199,13,B
46,2,11/1/92,24,f,177,Kate served the dish,Sensible,edin_semantics,sem_emo_sem_emo,0.960346610285342,2,2,2,1,1637986.05789219,70,B
46,2,11/1/92,24,f,178,The ribbon cut Lucy,Non-sensible,edin_semantics,sem_emo_sem_emo,1.15964628243819,2,1,1,1,1637987.96325812,95,B
46,2,11/1/92,24,f,179,The office entered Joe,Non-sensible,edin_semantics,sem_emo_sem_emo,1.27729405835271,1,1,1,1,1637989.98617818,133,B
46,2,11/1/92,24,f,180,The carrots grated Tom,Non-sensible,edin_semantics,sem_emo_sem_emo,1.03059236006811,1,2,2,1,1637991.76204983,140,B
46,2,11/1/92,24,f,181,The wallet carried Leo,Non-sensible,edin_semantics,sem_emo_sem_emo,1.05332575575449,2,2,2,1,1637993.56153142,150,B
46,2,11/1/92,24,f,182,Matt drank the juice,Sensible,edin_semantics,sem_emo_sem_emo,0.877693100133911,2,2,2,1,1637995.18454776,60,B
46,2,11/1/92,24,f,183,Jon trimmed the bushes,Sensible,edin_semantics,sem_emo_sem_emo,0.818663629470393,1,2,2,1,1637996.74883065,32,B
46,2,11/1/92,24,f,184,Liz sliced the tomato,Sensible,edin_semantics,sem_emo_sem_emo,0.77182479086332,1,1,1,1,1637998.26603769,3,B
46,2,11/1/92,24,f,185,Leah sucked the lolly,Sensible,edin_semantics,sem_emo_sem_emo,0.60703188739717,1,2,2,1,1637999.61853521,12,B
46,2,11/1/92,24,f,186,John described the pen,Sensible,edin_semantics,sem_emo_sem_emo,0.630401274189353,1,2,2,1,1638000.99459135,42,B
46,2,11/1/92,24,f,187,The perfume sniffed Tim,Non-sensible,edin_semantics,sem_emo_sem_emo,0.771835695486516,2,1,1,1,1638002.51181763,93,B
46,2,11/1/92,24,f,188,The report wrote Alex,Non-sensible,edin_semantics,sem_emo_sem_emo,1.07783819455653,1,1,1,1,1638004.33478984,149,B
46,2,11/1/92,24,f,189,The hedge jumped Sara,Non-sensible,edin_semantics,sem_emo_sem_emo,1.24254963477142,2,2,2,1,1638006.32245328,92,B
46,2,11/1/92,24,f,190,The debt paid Zoe,Non-sensible,edin_semantics,sem_emo_sem_emo,0.642104088328779,1,2,2,1,1638007.71022698,134,B
46,2,11/1/92,24,f,191,The pot scrubbed Josh,Non-sensible,edin_semantics,sem_emo_sem_emo,1.03079152829014,1,1,1,1,1638009.48617722,131,B
46,2,11/1/92,24,f,192,The dress wore Kate,Non-sensible,edin_semantics,sem_emo_sem_emo,1.51334106060676,2,2,2,1,1638011.74433349,100,B
46,2,11/1/92,24,f,193,The rose kissed Hugh,Non-sensible,edin_semantics,sem_emo_sem_emo,1.12400736636482,1,2,2,1,1638013.61435108,98,B
46,2,11/1/92,24,f,194,The hair trimmed Bill,Non-sensible,edin_semantics,sem_emo_sem_emo,0.901337986811996,1,1,1,1,1638015.26090614,107,B
46,2,11/1/92,24,f,195,The invite mailed Ian,Non-sensible,edin_semantics,sem_emo_sem_emo,0.806933233281598,2,1,1,1,1638016.81336434,89,B
46,2,11/1/92,24,f,196,The blanket stroked Ryan,Non-sensible,edin_semantics,sem_emo_sem_emo,0.677411057287827,1,2,2,1,1638018.23648864,116,B
46,2,11/1/92,24,f,197,The fat chewed Adam,Non-sensible,edin_semantics,sem_emo_sem_emo,0.889400083571672,1,2,2,1,1638019.87124499,106,B
46,2,11/1/92,24,f,198,The hair brushed Dan,Non-sensible,edin_semantics,sem_emo_sem_emo,0.724892301484942,2,1,1,1,1638021.34140825,147,B
46,2,11/1/92,24,f,199,The salt passed Leo,Non-sensible,edin_semantics,sem_emo_sem_emo,0.818392299115658,1,2,2,1,1638022.90566292,118,B
46,2,11/1/92,24,f,200,The portrait painted Jay,Non-sensible,edin_semantics,sem_emo_sem_emo,0.88910373672843,1,2,2,1,1638024.54045616,110,B
46,2,11/1/92,24,f,201,The trophy polished Anna,Non-sensible,edin_semantics,sem_emo_sem_emo,0.888987635495141,1,2,2,1,1638026.17527762,104,B
46,2,11/1/92,24,f,202,Ryan painted the picture,Sensible,edin_semantics,sem_emo_sem_emo,0.95961760985665,1,1,1,1,1638027.8806152,35,B
46,2,11/1/92,24,f,203,The kettle carried John,Non-sensible,edin_semantics,sem_emo_sem_emo,0.760120052378625,2,1,1,1,1638029.38608093,105,B
46,2,11/1/92,24,f,204,Jane punched the wall,Sensible,edin_semantics,sem_emo_sem_emo,0.807114120572805,2,2,2,1,1638030.93856864,50,B
46,2,11/1/92,24,f,205,The opera watched Adam,Non-sensible,edin_semantics,sem_emo_sem_emo,0.713379034074023,1,2,2,1,1638032.39688316,108,B
46,2,11/1/92,24,f,206,Phil typed the letter,Sensible,edin_semantics,sem_emo_sem_emo,1.61853970284574,1,1,1,1,1638034.76090935,49,B
46,2,11/1/92,24,f,207,The hotline dialed Hugh,Non-sensible,edin_semantics,sem_emo_sem_emo,0.524760998087004,1,2,2,1,1638036.03119147,138,B
46,2,11/1/92,24,f,208,The shoes counted Lucy,Non-sensible,edin_semantics,sem_emo_sem_emo,0.594796675257385,2,1,1,1,1638037.37192588,123,B
46,2,11/1/92,24,f,209,Max kissed the mirror,Sensible,edin_semantics,sem_emo_sem_emo,1.03051666985266,2,1,1,1,1638039.14784597,23,B
46,2,11/1/92,24,f,210,Dan whisked the eggs,Sensible,edin_semantics,sem_emo_sem_emo,0.760232625994831,1,2,2,1,1638040.65325751,62,B
46,2,11/1/92,24,f,211,The nuts mixed Liam,Non-sensible,edin_semantics,sem_emo_sem_emo,0.771873861551285,2,1,1,1,1638042.17041804,83,B
46,2,11/1/92,24,f,212,Tim cleaned the floor,Sensible,edin_semantics,sem_emo_sem_emo,1.15991087793373,1,1,1,1,1638044.07579295,5,B
46,2,11/1/92,24,f,213,The message typed Eve,Non-sensible,edin_semantics,sem_emo_sem_emo,0.700790065806359,1,2,2,1,1638045.52240113,124,B
46,2,11/1/92,24,f,214,Kate built the house,Sensible,edin_semantics,sem_emo_sem_emo,0.901186285307631,2,2,2,1,1638047.16900622,46,B
46,2,11/1/92,24,f,215,The trousers ironed Eve,Non-sensible,edin_semantics,sem_emo_sem_emo,0.689360827440396,2,2,2,1,1638048.60385995,130,B
46,2,11/1/92,24,f,216,Bill counted the sheets,Sensible,edin_semantics,sem_emo_sem_emo,0.901023679645732,1,2,2,1,1638050.2504333,48,B
46,2,11/1/92,24,f,217,The shed built Rose,Non-sensible,edin_semantics,sem_emo_sem_emo,1.64155661640689,1,1,1,1,1638052.63786575,121,B
46,2,11/1/92,24,f,218,Jen fixed the laptop,Sensible,edin_semantics,sem_emo_sem_emo,1.08926294301637,2,1,1,1,1638054.47262608,37,B
46,2,11/1/92,24,f,219,The stairs climbed Ben,Non-sensible,edin_semantics,sem_emo_sem_emo,0.80686171236448,2,1,1,1,1638056.02509134,143,B
46,2,11/1/92,24,f,220,Will mashed the potatoes,Sensible,edin_semantics,sem_emo_sem_emo,1.15922613698058,2,2,2,1,1638057.93043161,28,B
46,2,11/1/92,24,f,221,The steak ate Mike,Non-sensible,edin_semantics,sem_emo_sem_emo,2.03036689269356,2,2,2,1,1638060.70607813,142,B
46,2,11/1/92,24,f,222,Phil chopped the herbs,Sensible,edin_semantics,sem_emo_sem_emo,1.48901848890819,1,1,1,1,1638062.94067963,27,B
46,2,11/1/92,24,f,223,The lemon squeezed Jay,Non-sensible,edin_semantics,sem_emo_sem_emo,1.08923055022024,2,2,2,1,1638064.77549096,76,B
46,2,11/1/92,24,f,224,The rope pulled Andy,Non-sensible,edin_semantics,sem_emo_sem_emo,0.842919811839238,2,2,2,1,1638066.36313907,148,B
46,2,11/1/92,24,f,225,Jon polished the coins,Sensible,edin_semantics,sem_emo_sem_emo,1.07768200314604,1,1,1,1,1638068.1861565,29,B
46,2,11/1/92,24,f,226,Jen weighed the flour,Sensible,edin_semantics,sem_emo_sem_emo,0.769000515574589,1,2,2,1,1638069.69158054,64,B
46,2,11/1/92,24,f,227,Mary iced the cake,Sensible,edin_semantics,sem_emo_sem_emo,0.642352006165311,1,2,1,0,1638071.07946105,44,B
46,2,11/1/92,24,f,228,Tom dialed the number,Sensible,edin_semantics,sem_emo_sem_emo,1.05388188734651,1,1,1,1,1638072.87890703,63,B
46,2,11/1/92,24,f,229,The candy sucked Sam,Non-sensible,edin_semantics,sem_emo_sem_emo,1.03116292413324,1,1,1,1,1638074.65484348,87,B
46,2,11/1/92,24,f,230,Carl brushed the teeth,Sensible,edin_semantics,sem_emo_sem_emo,0.78360906848684,1,2,2,1,1638076.18374756,72,B
46,2,11/1/92,24,f,231,The onion sliced Liam,Non-sensible,edin_semantics,sem_emo_sem_emo,1.28966525639407,2,2,2,1,1638078.2185,78,B
46,2,11/1/92,24,f,232,The curtains measured Rob,Non-sensible,edin_semantics,sem_emo_sem_emo,0.747599718859419,2,2,2,1,1638079.71215227,126,B
46,2,11/1/92,24,f,233,Liz labeled the jar,Sensible,edin_semantics,sem_emo_sem_emo,1.12476298655383,2,1,1,1,1638081.58217435,61,B
46,2,11/1/92,24,f,234,Ian cancelled the plans,Sensible,edin_semantics,sem_emo_sem_emo,0.783771032933146,2,1,1,1,1638083.11113937,7,B
46,2,11/1/92,24,f,235,The socks knitted Ryan,Non-sensible,edin_semantics,sem_emo_sem_emo,1.7129957715515,1,1,2,0,1638085.56920886,141,B
46,2,11/1/92,24,f,236,The door kicked Max,Non-sensible,edin_semantics,sem_emo_sem_emo,2.195019320352,2,2,2,1,1638088.50944686,114,B
46,2,11/1/92,24,f,237,The sugar weighed Liz,Non-sensible,edin_semantics,sem_emo_sem_emo,1.242576896213,1,1,1,1,1638090.49712441,139,B
46,2,11/1/92,24,f,238,The carrots chopped Fred,Non-sensible,edin_semantics,sem_emo_sem_emo,1.8304677917622,2,2,2,1,1638093.07276534,102,B
46,2,11/1/92,24,f,239,Kate lifted the box,Sensible,edin_semantics,sem_emo_sem_emo,0.806577873881906,2,1,1,1,1638094.62525818,69,B
46,2,11/1/92,24,f,240,The church described Erin,Non-sensible,edin_semantics,sem_emo_sem_emo,1.45373429101892,1,1,1,1,1638096.8246159,117,B
46,2,11/1/92,24,f,241,Erin crushed the garlic,Sensible,edin_semantics,sem_emo_sem_emo,0.877644350286573,1,2,2,1,1638098.44763737,6,B
46,2,11/1/92,24,f,242,Tim pulled the handle,Sensible,edin_semantics,sem_emo_sem_emo,0.83009639615193,2,1,1,1,1638100.02370037,73,B
46,2,11/1/92,24,f,243,The internet searched Max,Non-sensible,edin_semantics,sem_emo_sem_emo,0.853971881791949,2,1,1,1,1638101.62324501,85,B
46,2,11/1/92,24,f,244,The gum swallowed Owen,Non-sensible,edin_semantics,sem_emo_sem_emo,1.01850981172174,2,1,1,1,1638103.3873712,97,B
46,2,11/1/92,24,f,245,The donut iced Joe,Non-sensible,edin_semantics,sem_emo_sem_emo,1.38366686250083,1,1,1,1,1638105.51614064,119,B
46,2,11/1/92,24,f,246,Andy grated the cheese,Sensible,edin_semantics,sem_emo_sem_emo,0.983290399191901,1,1,1,1,1638107.24501855,65,B
46,2,11/1/92,24,f,247,The box labeled Ian,Non-sensible,edin_semantics,sem_emo_sem_emo,0.912579923868179,1,2,2,1,1638108.90336431,136,B
46,2,11/1/92,24,f,248,The desk wiped Lucy,Non-sensible,edin_semantics,sem_emo_sem_emo,0.760053342441097,2,1,1,1,1638110.4087101,115,B
46,2,11/1/92,24,f,249,The plate licked Jane,Non-sensible,edin_semantics,sem_emo_sem_emo,1.37156603275798,2,2,2,1,1638112.52577352,96,B
46,2,11/1/92,24,f,250,Erin posted the card,Sensible,edin_semantics,sem_emo_sem_emo,1.03058787016198,1,2,2,1,1638114.30171092,36,B
46,2,11/1/92,24,f,251,The rules taught Josh,Non-sensible,edin_semantics,sem_emo_sem_emo,1.00720725813881,1,2,2,1,1638116.05419427,90,B
46,2,11/1/92,24,f,252,Amy hugged the tree,Sensible,edin_semantics,sem_emo_sem_emo,1.66491317399777,1,1,1,1,1638118.46511478,11,B
46,2,11/1/92,24,f,253,Jon jumped the fence,Sensible,edin_semantics,sem_emo_sem_emo,0.901218999177217,2,1,1,1,1638120.1117032,17,B
46,2,11/1/92,24,f,254,The bed sold Jay,Non-sensible,edin_semantics,sem_emo_sem_emo,2.86547873471864,1,1,1,1,1638123.72241986,113,B
46,2,11/1/92,24,f,255,The problem solved Phil,Non-sensible,edin_semantics,sem_emo_sem_emo,4.08806312317029,1,1,1,1,1638128.55626517,109,B
46,2,11/1/92,24,f,256,The cream whisked Tom,Non-sensible,edin_semantics,sem_emo_sem_emo,1.34725917642936,1,1,1,1,1638130.64970038,137,B
46,2,11/1/92,24,f,257,The crate lifted Amy,Non-sensible,edin_semantics,sem_emo_sem_emo,0.841291507938877,1,2,2,1,1638132.23749987,144,B
46,2,11/1/92,24,f,258,The bowl dented Ian,Non-sensible,edin_semantics,sem_emo_sem_emo,0.806990321958438,1,2,2,1,1638133.7899507,146,B
46,2,11/1/92,24,f,259,Jen searched the room,Sensible,edin_semantics,sem_emo_sem_emo,0.642728212755173,1,2,2,1,1638135.1777398,10,B
46,2,11/1/92,24,f,260,Mary visited the museum,Sensible,edin_semantics,sem_emo_sem_emo,2.53561293752864,2,2,2,1,1638138.45913973,16,B
46,2,11/1/92,24,f,261,Eve taught the lesson,Sensible,edin_semantics,sem_emo_sem_emo,1.33675105078146,1,1,1,1,1638140.54088528,15,B
46,2,11/1/92,24,f,262,The rice stored Fred,Non-sensible,edin_semantics,sem_emo_sem_emo,0.912557152565569,1,1,1,1,1638142.19918517,127,B
46,2,11/1/92,24,f,263,The radio fixed Luke,Non-sensible,edin_semantics,sem_emo_sem_emo,0.959740125574172,1,2,2,1,1638143.90460678,112,B
46,2,11/1/92,24,f,264,Joe wore the jumper,Sensible,edin_semantics,sem_emo_sem_emo,0.91225663642399,2,1,1,1,1638145.56289609,25,B
46,2,11/1/92,24,f,265,Lily dented the lorry,Sensible,edin_semantics,sem_emo_sem_emo,1.07753992360085,2,1,1,1,1638147.38593886,71,B
46,2,11/1/92,24,f,266,The gift posted Jack,Non-sensible,edin_semantics,sem_emo_sem_emo,0.748384204227477,2,1,1,1,1638148.87956387,111,B
46,2,11/1/92,24,f,267,Jeff watered the garden,Sensible,edin_semantics,sem_emo_sem_emo,2.36001748568378,1,2,2,1,1638151.98452486,54,B
46,2,11/1/92,24,f,268,Sean read the book,Sensible,edin_semantics,sem_emo_sem_emo,1.30091264564544,2,2,2,1,1638154.03092367,4,B
46,2,11/1/92,24,f,269,Rob stroked the fur,Sensible,edin_semantics,sem_emo_sem_emo,1.08877704967745,1,1,1,1,1638155.86564872,41,B
46,2,11/1/92,24,f,270,Matt pushed the trolley,Sensible,edin_semantics,sem_emo_sem_emo,2.41833110526204,2,2,2,1,1638159.02948619,26,B
46,2,11/1/92,24,f,271,Lara filed the papers,Sensible,edin_semantics,sem_emo_sem_emo,1.19446703745052,1,2,2,1,1638160.96999232,24,B
46,2,11/1/92,24,f,272,The pan washed Beth,Non-sensible,edin_semantics,sem_emo_sem_emo,0.936319102533162,2,2,2,1,1638162.65185756,132,B
46,2,11/1/92,24,f,273,The hospital visited Tom,Non-sensible,edin_semantics,sem_emo_sem_emo,1.15975051699206,1,1,1,1,1638164.5571866,91,B
46,2,11/1/92,24,f,274,Beth took the photo,Sensible,edin_semantics,sem_emo_sem_emo,1.07417074195109,1,1,1,1,1638166.36839987,53,B
46,2,11/1/92,24,f,275,Matt kicked the bike,Sensible,edin_semantics,sem_emo_sem_emo,0.948114284779876,2,1,1,1,1638168.06204874,39,B
46,2,11/1/92,24,f,276,The turnip mashed Ella,Non-sensible,edin_semantics,sem_emo_sem_emo,2.0534145955462,1,1,1,1,1638170.86114835,103,B
46,2,11/1/92,24,f,277,Phil passed the towels,Sensible,edin_semantics,sem_emo_sem_emo,1.13613674044609,1,1,1,1,1638172.74292135,43,B
46,2,11/1/92,24,f,278,Amy measured the thread,Sensible,edin_semantics,sem_emo_sem_emo,1.05448356131092,1,1,1,1,1638174.54243886,51,B
46,2,11/1/92,24,f,279,Jon cut the paper,Sensible,edin_semantics,sem_emo_sem_emo,2.00658986880444,2,2,2,1,1638177.29451104,20,B
46,2,11/1/92,24,f,280,Hugh pulled the lever,Sensible,edin_semantics,sem_emo_sem_emo,1.00720725813881,1,1,1,1,1638179.04696135,45,B
46,2,11/1/92,24,f,281,Ewan wrote the story,Sensible,edin_semantics,sem_emo_sem_emo,0.88910277467221,1,2,2,1,1638180.68171643,74,B
46,2,11/1/92,24,f,282,Max lent the bucket,Sensible,edin_semantics,sem_emo_sem_emo,1.11314997449517,2,1,1,1,1638182.53999464,19,B
46,2,11/1/92,24,f,283,The sweets offered Tom,Non-sensible,edin_semantics,sem_emo_sem_emo,0.995334461564198,1,2,2,1,1638184.28070205,84,B
46,2,11/1/92,24,f,284,Leo stored the wine,Sensible,edin_semantics,sem_emo_sem_emo,1.91287466720678,1,2,2,1,1638186.93868763,52,B
46,2,11/1/92,24,f,285,Luke swallowed the pill,Sensible,edin_semantics,sem_emo_sem_emo,1.07663452601992,2,2,2,1,1638188.76169415,22,B
46,2,11/1/92,24,f,286,Josh squeezed the ball,Sensible,edin_semantics,sem_emo_sem_emo,1.0891644814983,1,1,1,1,1638190.59647758,1,B
46,2,11/1/92,24,f,287,Mark washed the dishes,Sensible,edin_semantics,sem_emo_sem_emo,1.35954089323059,1,1,1,1,1638192.7016759,57,B
46,2,11/1/92,24,f,288,The ticket took Tim,Non-sensible,edin_semantics,sem_emo_sem_emo,0.995359156979248,1,2,2,1,1638194.44237208,128,B
46,2,11/1/92,24,f,289,The button pushed Ian,Non-sensible,edin_semantics,sem_emo_sem_emo,1.06593653303571,1,1,1,1,1638196.25355905,101,B
46,2,11/1/92,24,f,290,Mike paid the bill,Sensible,edin_semantics,sem_emo_sem_emo,0.93623186647892,2,1,1,1,1638197.93537329,59,B
46,2,11/1/92,24,f,291,Ben chewed the toffee,Sensible,edin_semantics,sem_emo_sem_emo,0.795030930545181,2,1,1,1,1638199.47612933,31,B
46,2,11/1/92,24,f,292,The bath cleaned Jack,Non-sensible,edin_semantics,sem_emo_sem_emo,1.18354389769956,2,2,2,1,1638201.40490249,80,B
46,2,11/1/92,24,f,293,Luke climbed the hill,Sensible,edin_semantics,sem_emo_sem_emo,1.00722104916349,2,2,2,1,1638203.15734318,68,B
46,2,11/1/92,24,f,294,Josh ironed the shirt,Sensible,edin_semantics,sem_emo_sem_emo,0.830522955860943,2,1,1,1,1638204.73331285,55,B
46,2,11/1/92,24,f,295,The house dusted Alex,Non-sensible,edin_semantics,sem_emo_sem_emo,1.61862533562817,2,2,2,1,1638207.09732428,122,B
46,2,11/1/92,24,f,296,Sam tidied the room,Sensible,edin_semantics,sem_emo_sem_emo,1.32425348833203,1,2,2,1,1638209.16731891,2,B
46,2,11/1/92,24,f,297,The monitor punched Erin,Non-sensible,edin_semantics,sem_emo_sem_emo,0.947572265053168,2,1,1,1,1638210.86092,125,B
46,2,11/1/92,24,f,298,Tom knitted the scarf,Sensible,edin_semantics,sem_emo_sem_emo,1.36011723009869,1,2,2,1,1638212.9661552,66,B
46,2,11/1/92,24,f,299,The beer drank Jack,Non-sensible,edin_semantics,sem_emo_sem_emo,1.05390369636007,1,1,1,1,1638214.76558098,135,B
46,2,11/1/92,24,f,300,Beth wiped the table,Sensible,edin_semantics,sem_emo_sem_emo,0.959688810165972,1,2,2,1,1638216.47099874,40,B
