subject_column,AssignedList_column,subject_dob_column,subject_age_column,subject_gender_column,trialnum_column,Stim_column,Type_column,Experiment_column,OrderGroup_column,ReactionTime_column,StimSide_column,StimPosition_column,Response_column,Valid_column,TrialEndSecs_column,PairID_column,List_column
47,3,1/9/95,20,f,1,Bill counted the sheets,Sensible,edin_semantics,emo_sem_emo_sem,1.54331731423736,2,1,1,1,1642780.39574268,48,B
47,3,1/9/95,20,f,2,The garage tidied Erin,Non-sensible,edin_semantics,emo_sem_emo_sem,0.792309927521273,1,2,2,1,1642781.93643905,77,B
47,3,1/9/95,20,f,3,Kate lifted the box,Sensible,edin_semantics,emo_sem_emo_sem,1.84170491807163,2,2,2,1,1642784.5239005,69,B
47,3,1/9/95,20,f,4,The crate lifted Amy,Non-sensible,edin_semantics,emo_sem_emo_sem,0.936421733582392,1,1,1,1,1642786.20576735,144,B
47,3,1/9/95,20,f,5,Mary iced the cake,Sensible,edin_semantics,emo_sem_emo_sem,1.42064864025451,2,1,1,1,1642788.36978507,44,B
47,3,1/9/95,20,f,6,Phil chopped the herbs,Sensible,edin_semantics,emo_sem_emo_sem,0.809602600289509,2,2,2,1,1642789.92230196,27,B
47,3,1/9/95,20,f,7,Jon jumped the fence,Sensible,edin_semantics,emo_sem_emo_sem,1.23280418547802,2,2,2,1,1642791.89816412,17,B
47,3,1/9/95,20,f,8,Rob mailed the parcel,Sensible,edin_semantics,emo_sem_emo_sem,1.08031256264076,1,1,1,1,1642793.72125179,14,B
47,3,1/9/95,20,f,9,The kettle carried John,Non-sensible,edin_semantics,emo_sem_emo_sem,1.51521407533437,2,2,2,1,1642795.97930126,105,B
47,3,1/9/95,20,f,10,Jeff watered the garden,Sensible,edin_semantics,emo_sem_emo_sem,1.00943851890042,2,1,1,1,1642797.73172303,54,B
47,3,1/9/95,20,f,11,The plants watered Luke,Non-sensible,edin_semantics,emo_sem_emo_sem,0.997626659460366,1,2,2,1,1642799.47237303,129,B
47,3,1/9/95,20,f,12,Luke swallowed the pill,Sensible,edin_semantics,emo_sem_emo_sem,0.80911478237249,1,1,1,1,1642801.02484535,22,B
47,3,1/9/95,20,f,13,Josh squeezed the ball,Sensible,edin_semantics,emo_sem_emo_sem,0.809335118392482,1,2,2,1,1642802.57731061,1,B
47,3,1/9/95,20,f,14,Hugh pulled the lever,Sensible,edin_semantics,emo_sem_emo_sem,1.03297307738103,2,2,2,1,1642804.35323871,45,B
47,3,1/9/95,20,f,15,The beer drank Jack,Non-sensible,edin_semantics,emo_sem_emo_sem,1.47993180179037,1,2,2,1,1642806.5761063,135,B
47,3,1/9/95,20,f,16,Phil passed the towels,Sensible,edin_semantics,emo_sem_emo_sem,0.89132345165126,1,2,2,1,1642808.21092134,43,B
47,3,1/9/95,20,f,17,The button pushed Ian,Non-sensible,edin_semantics,emo_sem_emo_sem,2.98480997863226,2,2,2,1,1642811.93921394,101,B
47,3,1/9/95,20,f,18,The box labeled Ian,Non-sensible,edin_semantics,emo_sem_emo_sem,1.83276608353481,2,1,1,1,1642814.51489079,136,B
47,3,1/9/95,20,f,19,Ryan entered the room,Sensible,edin_semantics,emo_sem_emo_sem,1.32647737232037,2,1,1,1,1642816.58493961,58,B
47,3,1/9/95,20,f,20,Ella watched the movie,Sensible,edin_semantics,emo_sem_emo_sem,0.891557578463107,1,2,2,1,1642818.21967673,33,B
47,3,1/9/95,20,f,21,Amy hugged the tree,Sensible,edin_semantics,emo_sem_emo_sem,1.25610589957796,2,2,2,1,1642820.21908564,11,B
47,3,1/9/95,20,f,22,The internet searched Max,Non-sensible,edin_semantics,emo_sem_emo_sem,1.07944725523703,1,2,2,1,1642822.04207548,85,B
47,3,1/9/95,20,f,23,Matt pushed the trolley,Sensible,edin_semantics,emo_sem_emo_sem,1.43254869827069,1,1,1,1,1642824.21785887,26,B
47,3,1/9/95,20,f,24,Tom dialed the number,Sensible,edin_semantics,emo_sem_emo_sem,0.938546193996444,2,2,2,1,1642825.89973149,63,B
47,3,1/9/95,20,f,25,Carl sold the sofa,Sensible,edin_semantics,emo_sem_emo_sem,1.25663380767219,1,1,1,1,1642827.8991202,38,B
47,3,1/9/95,20,f,26,The hair trimmed Bill,Non-sensible,edin_semantics,emo_sem_emo_sem,1.43262887885794,2,2,2,1,1642830.0749501,107,B
47,3,1/9/95,20,f,27,The radio fixed Luke,Non-sensible,edin_semantics,emo_sem_emo_sem,1.50291311531328,2,1,1,1,1642832.32132658,112,B
47,3,1/9/95,20,f,28,The rope pulled Andy,Non-sensible,edin_semantics,emo_sem_emo_sem,2.32649950217456,2,1,1,1,1642835.39100016,148,B
47,3,1/9/95,20,f,29,The rice stored Fred,Non-sensible,edin_semantics,emo_sem_emo_sem,0.868028151569888,2,2,2,1,1642837.00227424,127,B
47,3,1/9/95,20,f,30,The steak ate Mike,Non-sensible,edin_semantics,emo_sem_emo_sem,0.809391885995865,1,1,1,1,1642838.55475297,142,B
47,3,1/9/95,20,f,31,The socks knitted Ryan,Non-sensible,edin_semantics,emo_sem_emo_sem,0.75036979210563,1,2,2,1,1642840.04841358,141,B
47,3,1/9/95,20,f,32,The bath cleaned Jack,Non-sensible,edin_semantics,emo_sem_emo_sem,1.3626419515349,2,1,1,1,1642842.15409587,80,B
47,3,1/9/95,20,f,33,The blanket stroked Ryan,Non-sensible,edin_semantics,emo_sem_emo_sem,1.76179582346231,2,1,1,1,1642844.65882973,116,B
47,3,1/9/95,20,f,34,The shed built Rose,Non-sensible,edin_semantics,emo_sem_emo_sem,0.855989541858435,1,2,2,1,1642846.2583301,121,B
47,3,1/9/95,20,f,35,Matt drank the juice,Sensible,edin_semantics,emo_sem_emo_sem,1.67979401955381,2,1,1,1,1642848.68111219,60,B
47,3,1/9/95,20,f,36,The house dusted Alex,Non-sensible,edin_semantics,emo_sem_emo_sem,1.80882485001348,1,1,1,1,1642851.23334171,122,B
47,3,1/9/95,20,f,37,The car lent Fred,Non-sensible,edin_semantics,emo_sem_emo_sem,1.17378722294234,1,1,1,1,1642853.15036299,94,B
47,3,1/9/95,20,f,38,Dan whisked the eggs,Sensible,edin_semantics,emo_sem_emo_sem,1.06776400539093,1,1,1,1,1642854.96160705,62,B
47,3,1/9/95,20,f,39,Mike paid the bill,Sensible,edin_semantics,emo_sem_emo_sem,1.07985328906216,2,2,2,1,1642856.78458086,59,B
47,3,1/9/95,20,f,40,The rope pulled Emma,Non-sensible,edin_semantics,emo_sem_emo_sem,0.950675568310544,1,1,1,1,1642858.47817681,120,B
47,3,1/9/95,20,f,41,The ribbon cut Lucy,Non-sensible,edin_semantics,emo_sem_emo_sem,0.903322933474556,1,2,2,1,1642860.12473156,95,B
47,3,1/9/95,20,f,42,The party cancelled Phil,Non-sensible,edin_semantics,emo_sem_emo_sem,4.30250695324503,2,1,2,0,1642865.1703369,82,B
47,3,1/9/95,20,f,43,The report wrote Alex,Non-sensible,edin_semantics,emo_sem_emo_sem,2.98475096607581,2,2,2,1,1642868.89859742,149,B
47,3,1/9/95,20,f,44,Erin posted the card,Sensible,edin_semantics,emo_sem_emo_sem,1.25580570404418,1,1,1,1,1642870.89797522,36,B
47,3,1/9/95,20,f,45,The church described Erin,Non-sensible,edin_semantics,emo_sem_emo_sem,0.879367588087916,1,2,2,1,1642872.52110124,117,B
47,3,1/9/95,20,f,46,The pan washed Beth,Non-sensible,edin_semantics,emo_sem_emo_sem,2.92616537446156,2,1,1,1,1642876.19053723,132,B
47,3,1/9/95,20,f,47,The rules taught Josh,Non-sensible,edin_semantics,emo_sem_emo_sem,2.84384349035099,2,1,1,1,1642879.77769111,90,B
47,3,1/9/95,20,f,48,Tim ate the ham,Sensible,edin_semantics,emo_sem_emo_sem,4.59589033643715,2,2,2,1,1642885.1172751,67,B
47,3,1/9/95,20,f,49,The cream whisked Tom,Non-sensible,edin_semantics,emo_sem_emo_sem,3.94834103505127,2,2,2,1,1642889.80997784,137,B
47,3,1/9/95,20,f,50,The sugar weighed Liz,Non-sensible,edin_semantics,emo_sem_emo_sem,1.36089914967306,1,2,2,1,1642891.91521594,139,B
47,3,1/9/95,20,f,51,Jon polished the coins,Sensible,edin_semantics,emo_sem_emo_sem,0.890385982114822,1,2,2,1,1642893.55003226,29,B
47,3,1/9/95,20,f,52,The rose kissed Hugh,Non-sensible,edin_semantics,emo_sem_emo_sem,1.73748864629306,2,1,1,1,1642896.03163791,98,B
47,3,1/9/95,20,f,53,Mark washed the dishes,Sensible,edin_semantics,emo_sem_emo_sem,0.7733620100189,1,2,2,1,1642897.54882218,57,B
47,3,1/9/95,20,f,54,Lily dented the lorry,Sensible,edin_semantics,emo_sem_emo_sem,0.938676407095045,2,2,2,1,1642899.23080481,71,B
47,3,1/9/95,20,f,55,Phil typed the letter,Sensible,edin_semantics,emo_sem_emo_sem,1.44391443394125,2,2,2,1,1642901.41826023,49,B
47,3,1/9/95,20,f,56,Ryan carried the gun,Sensible,edin_semantics,emo_sem_emo_sem,0.70364192314446,1,2,2,1,1642902.86488861,75,B
47,3,1/9/95,20,f,57,The invite mailed Ian,Non-sensible,edin_semantics,emo_sem_emo_sem,2.29136027046479,2,2,2,1,1642905.89928729,89,B
47,3,1/9/95,20,f,58,The message typed Eve,Non-sensible,edin_semantics,emo_sem_emo_sem,1.34989069821313,2,1,1,1,1642907.99275618,124,B
47,3,1/9/95,20,f,59,Amy measured the thread,Sensible,edin_semantics,emo_sem_emo_sem,0.90328829549253,1,2,2,1,1642909.63933305,51,B
47,3,1/9/95,20,f,60,Max lent the bucket,Sensible,edin_semantics,emo_sem_emo_sem,1.06826882134192,2,2,2,1,1642911.45053092,19,B
47,3,1/9/95,20,f,61,Tim cleaned the floor,Sensible,edin_semantics,emo_sem_emo_sem,1.37414495600387,2,2,2,1,1642913.56753822,5,B
47,3,1/9/95,20,f,62,Jack mixed the fruits,Sensible,edin_semantics,emo_sem_emo_sem,1.3860376374796,2,1,1,1,1642915.6963455,8,B
47,3,1/9/95,20,f,63,Matt kicked the bike,Sensible,edin_semantics,emo_sem_emo_sem,0.856266324874014,1,2,2,1,1642917.29584204,39,B
47,3,1/9/95,20,f,64,Ian cancelled the plans,Sensible,edin_semantics,emo_sem_emo_sem,2.76111268624663,2,2,2,1,1642920.80068397,7,B
47,3,1/9/95,20,f,65,Jon cut the paper,Sensible,edin_semantics,emo_sem_emo_sem,1.314695981564,1,1,1,1,1642922.85887315,20,B
47,3,1/9/95,20,f,66,The trousers ironed Eve,Non-sensible,edin_semantics,emo_sem_emo_sem,1.02067628665827,1,1,1,1,1642924.62308016,130,B
47,3,1/9/95,20,f,67,The perfume sniffed Tim,Non-sensible,edin_semantics,emo_sem_emo_sem,0.985086440807208,1,2,2,1,1642926.35195839,93,B
47,3,1/9/95,20,f,68,The carrots chopped Fred,Non-sensible,edin_semantics,emo_sem_emo_sem,0.856256703147665,1,1,1,1,1642927.95150303,102,B
47,3,1/9/95,20,f,69,The candy sucked Sam,Non-sensible,edin_semantics,emo_sem_emo_sem,1.89103993377648,2,2,2,1,1642930.58596143,87,B
47,3,1/9/95,20,f,70,The opera watched Adam,Non-sensible,edin_semantics,emo_sem_emo_sem,1.50321138650179,1,1,1,1,1642932.83236871,108,B
47,3,1/9/95,20,f,71,Kate served the dish,Sensible,edin_semantics,emo_sem_emo_sem,1.75015587056987,2,1,1,1,1642935.32573651,70,B
47,3,1/9/95,20,f,72,The pot scrubbed Josh,Non-sensible,edin_semantics,emo_sem_emo_sem,0.890980920987204,2,2,2,1,1642936.96052782,131,B
47,3,1/9/95,20,f,73,The nuts mixed Liam,Non-sensible,edin_semantics,emo_sem_emo_sem,1.12703754496761,1,2,2,1,1642938.83055759,83,B
47,3,1/9/95,20,f,74,The gum swallowed Owen,Non-sensible,edin_semantics,emo_sem_emo_sem,1.70317815965973,2,2,2,1,1642941.2768784,97,B
47,3,1/9/95,20,f,75,The ice crushed Josh,Non-sensible,edin_semantics,emo_sem_emo_sem,1.397058917908,1,2,2,1,1642943.41741545,81,B
47,3,1/9/95,20,f,76,Jane punched the wall,Sensible,edin_semantics,emo_sem_emo_sem,2.45563135994598,1,1,1,1,1642946.61647842,50,B
47,3,1/9/95,20,f,77,The turnip mashed Ella,Non-sensible,edin_semantics,emo_sem_emo_sem,1.0323088625446,1,2,2,1,1642948.39238632,103,B
47,3,1/9/95,20,f,78,The shoes counted Lucy,Non-sensible,edin_semantics,emo_sem_emo_sem,3.65545380837284,2,2,2,1,1642952.79110915,123,B
47,3,1/9/95,20,f,79,Joe wore the jumper,Sensible,edin_semantics,emo_sem_emo_sem,3.1132721696049,2,2,2,1,1642956.64874207,25,B
47,3,1/9/95,20,f,80,Lara filed the papers,Sensible,edin_semantics,emo_sem_emo_sem,0.99648168310523,1,1,1,1,1642958.38949021,24,B
47,3,1/9/95,20,f,81,The salt passed Leo,Non-sensible,edin_semantics,emo_sem_emo_sem,1.60845140158199,2,1,1,1,1642960.74172474,118,B
47,3,1/9/95,20,f,82,The stairs climbed Ben,Non-sensible,edin_semantics,emo_sem_emo_sem,2.44351898436435,2,2,2,1,1642963.92894956,143,B
47,3,1/9/95,20,f,83,Sean read the book,Sensible,edin_semantics,emo_sem_emo_sem,1.96116124349646,2,1,1,1,1642966.63401068,4,B
47,3,1/9/95,20,f,84,Beth took the photo,Sensible,edin_semantics,emo_sem_emo_sem,1.2093321676366,1,2,2,1,1642968.58632642,53,B
47,3,1/9/95,20,f,85,Sam tidied the room,Sensible,edin_semantics,emo_sem_emo_sem,1.56061319424771,2,1,1,1,1642970.89154635,2,B
47,3,1/9/95,20,f,86,The onion sliced Liam,Non-sensible,edin_semantics,emo_sem_emo_sem,1.25539646344259,2,1,1,1,1642972.89096007,78,B
47,3,1/9/95,20,f,87,Dan carried the folder,Sensible,edin_semantics,emo_sem_emo_sem,1.5611497615464,2,1,1,1,1642975.19612292,30,B
47,3,1/9/95,20,f,88,The report filed Ian,Non-sensible,edin_semantics,emo_sem_emo_sem,1.18485564971343,2,2,2,1,1642977.12508499,99,B
47,3,1/9/95,20,f,89,Josh ironed the shirt,Sensible,edin_semantics,emo_sem_emo_sem,0.714577571023256,1,2,2,1,1642978.58336391,55,B
47,3,1/9/95,20,f,90,The portrait painted Jay,Non-sensible,edin_semantics,emo_sem_emo_sem,1.1853405807633,2,1,1,1,1642980.51218422,110,B
47,3,1/9/95,20,f,91,Tom knitted the scarf,Sensible,edin_semantics,emo_sem_emo_sem,0.833119518822059,1,1,1,1,1642982.08819237,66,B
47,3,1/9/95,20,f,92,Beth wiped the table,Sensible,edin_semantics,emo_sem_emo_sem,1.56184284132905,1,1,1,1,1642984.39336452,40,B
47,3,1/9/95,20,f,93,The monitor punched Erin,Non-sensible,edin_semantics,emo_sem_emo_sem,1.11513235559687,1,2,2,1,1642986.2516453,125,B
47,3,1/9/95,20,f,94,Eve taught the lesson,Sensible,edin_semantics,emo_sem_emo_sem,1.47957355552353,1,2,2,1,1642988.47450134,15,B
47,3,1/9/95,20,f,95,Joe solved the puzzle,Sensible,edin_semantics,emo_sem_emo_sem,1.77363301976584,2,1,1,1,1642990.99139375,34,B
47,3,1/9/95,20,f,96,The hedge jumped Sara,Non-sensible,edin_semantics,emo_sem_emo_sem,2.35019506281242,2,1,1,1,1642994.08466347,92,B
47,3,1/9/95,20,f,97,Kate built the house,Sensible,edin_semantics,emo_sem_emo_sem,1.16192019917071,2,1,1,1,1642995.98989887,46,B
47,3,1/9/95,20,f,98,Liz sliced the tomato,Sensible,edin_semantics,emo_sem_emo_sem,1.51518424833193,1,2,2,1,1642998.24802403,3,B
47,3,1/9/95,20,f,99,John described the pen,Sensible,edin_semantics,emo_sem_emo_sem,1.12633901298977,1,1,1,1,1643000.11812437,42,B
47,3,1/9/95,20,f,100,Jen fixed the laptop,Sensible,edin_semantics,emo_sem_emo_sem,0.891003371449187,1,2,2,1,1643001.75285859,37,B
47,3,1/9/95,20,f,101,The bed sold Jay,Non-sensible,edin_semantics,emo_sem_emo_sem,1.03216614155099,1,2,2,1,1643003.52883865,113,B
47,3,1/9/95,20,f,102,The plate licked Jane,Non-sensible,edin_semantics,emo_sem_emo_sem,1.35034355707467,2,1,1,1,1643005.62229151,96,B
47,3,1/9/95,20,f,103,Jake dusted the shelf,Sensible,edin_semantics,emo_sem_emo_sem,3.76129229040816,2,2,2,1,1643010.12683292,47,B
47,3,1/9/95,20,f,104,Jen searched the room,Sensible,edin_semantics,emo_sem_emo_sem,1.97311229608022,2,1,1,1,1643012.84401668,10,B
47,3,1/9/95,20,f,105,The dress wore Kate,Non-sensible,edin_semantics,emo_sem_emo_sem,3.44650714821182,2,1,1,1,1643017.03097723,100,B
47,3,1/9/95,20,f,106,Rob stroked the fur,Sensible,edin_semantics,emo_sem_emo_sem,0.929949569748715,1,2,2,1,1643018.70085036,41,B
47,3,1/9/95,20,f,107,Will mashed the potatoes,Sensible,edin_semantics,emo_sem_emo_sem,1.08195722359233,1,1,1,1,1643020.52405317,28,B
47,3,1/9/95,20,f,108,The door kicked Max,Non-sensible,edin_semantics,emo_sem_emo_sem,2.58807402779348,2,1,1,1,1643023.85232241,114,B
47,3,1/9/95,20,f,109,Tim pulled the handle,Sensible,edin_semantics,emo_sem_emo_sem,2.05731457169168,2,2,2,1,1643026.65158366,73,B
47,3,1/9/95,20,f,110,The wallet carried Leo,Non-sensible,edin_semantics,emo_sem_emo_sem,1.81093423673883,2,1,1,1,1643029.203767,150,B
47,3,1/9/95,20,f,111,Jon trimmed the bushes,Sensible,edin_semantics,emo_sem_emo_sem,1.14028591709211,1,1,1,1,1643031.08566605,32,B
47,3,1/9/95,20,f,112,Ryan painted the picture,Sensible,edin_semantics,emo_sem_emo_sem,1.75235281442292,2,2,2,1,1643033.57896072,35,B
47,3,1/9/95,20,f,113,Lily got the kettle,Sensible,edin_semantics,emo_sem_emo_sem,0.822818579152226,1,2,2,1,1643035.14310602,13,B
47,3,1/9/95,20,f,114,The pillow hugged Kate,Non-sensible,edin_semantics,emo_sem_emo_sem,2.13955338858068,2,1,1,1,1643038.02445439,86,B
47,3,1/9/95,20,f,115,Max kissed the mirror,Sensible,edin_semantics,emo_sem_emo_sem,0.999383893562481,1,2,2,1,1643039.76543762,23,B
47,3,1/9/95,20,f,116,The sweets offered Tom,Non-sensible,edin_semantics,emo_sem_emo_sem,1.06949943024665,1,1,1,1,1643041.576453,84,B
47,3,1/9/95,20,f,117,Will licked the spoon,Sensible,edin_semantics,emo_sem_emo_sem,1.48091737949289,1,2,2,1,1643043.79920865,21,B
47,3,1/9/95,20,f,118,The hotline dialed Hugh,Non-sensible,edin_semantics,emo_sem_emo_sem,1.90461576264352,1,1,1,1,1643046.44571561,138,B
47,3,1/9/95,20,f,119,The trophy polished Anna,Non-sensible,edin_semantics,emo_sem_emo_sem,2.48044367367402,2,1,1,1,1643049.66836863,104,B
47,3,1/9/95,20,f,120,Carl brushed the teeth,Sensible,edin_semantics,emo_sem_emo_sem,0.939804706256837,1,1,1,1,1643051.34987915,72,B
47,3,1/9/95,20,f,121,The radio got Ben,Non-sensible,edin_semantics,emo_sem_emo_sem,1.68127896124497,2,1,1,1,1643053.77295117,88,B
47,3,1/9/95,20,f,122,Liz labeled the jar,Sensible,edin_semantics,emo_sem_emo_sem,2.91573710809462,2,2,2,1,1643057.43039377,61,B
47,3,1/9/95,20,f,123,The debt paid Zoe,Non-sensible,edin_semantics,emo_sem_emo_sem,1.25769507582299,2,1,1,1,1643059.42982032,134,B
47,3,1/9/95,20,f,124,The fat chewed Adam,Non-sensible,edin_semantics,emo_sem_emo_sem,1.88143143220805,2,1,2,0,1643062.05255763,106,B
47,3,1/9/95,20,f,125,The dessert served Fred,Non-sensible,edin_semantics,emo_sem_emo_sem,1.90403044549748,2,2,2,1,1643064.69882661,145,B
47,3,1/9/95,20,f,126,The lemon squeezed Jay,Non-sensible,edin_semantics,emo_sem_emo_sem,2.86933445115574,2,1,1,1,1643068.30961479,76,B
47,3,1/9/95,20,f,127,The desk wiped Lucy,Non-sensible,edin_semantics,emo_sem_emo_sem,2.04592830990441,1,2,2,1,1643071.09715847,115,B
47,3,1/9/95,20,f,128,Leo stored the wine,Sensible,edin_semantics,emo_sem_emo_sem,2.24514395277947,1,1,1,1,1643074.08454256,52,B
47,3,1/9/95,20,f,129,The bowl dented Ian,Non-sensible,edin_semantics,emo_sem_emo_sem,1.15223440388218,1,1,1,1,1643075.9778965,146,B
47,3,1/9/95,20,f,130,Andy grated the cheese,Sensible,edin_semantics,emo_sem_emo_sem,1.86887838505208,2,2,2,1,1643078.58888513,65,B
47,3,1/9/95,20,f,131,Ben chewed the toffee,Sensible,edin_semantics,emo_sem_emo_sem,2.65746473358013,2,2,2,1,1643081.98785908,31,B
47,3,1/9/95,20,f,132,Erin crushed the garlic,Sensible,edin_semantics,emo_sem_emo_sem,1.86937646567822,1,1,1,1,1643084.5988506,6,B
47,3,1/9/95,20,f,133,Jen weighed the flour,Sensible,edin_semantics,emo_sem_emo_sem,1.99837297899649,2,1,1,1,1643087.33939508,64,B
47,3,1/9/95,20,f,134,The hospital visited Tom,Non-sensible,edin_semantics,emo_sem_emo_sem,1.16354561690241,2,2,2,1,1643089.24449353,91,B
47,3,1/9/95,20,f,135,Mary visited the museum,Sensible,edin_semantics,emo_sem_emo_sem,1.25721784168854,2,1,1,1,1643091.24405478,16,B
47,3,1/9/95,20,f,136,The donut iced Joe,Non-sensible,edin_semantics,emo_sem_emo_sem,2.96268884092569,1,2,2,1,1643094.94858158,119,B
47,3,1/9/95,20,f,137,Phil sniffed the milk,Sensible,edin_semantics,emo_sem_emo_sem,1.70435937773436,1,1,1,1,1643097.39490206,18,B
47,3,1/9/95,20,f,138,Matt offered the money,Sensible,edin_semantics,emo_sem_emo_sem,1.18730884999968,2,2,2,1,1643099.32400397,9,B
47,3,1/9/95,20,f,139,The gift posted Jack,Non-sensible,edin_semantics,emo_sem_emo_sem,0.928552506025881,1,2,2,1,1643100.99425138,111,B
47,3,1/9/95,20,f,140,Liz scrubbed the bowl,Sensible,edin_semantics,emo_sem_emo_sem,1.29386382410303,1,1,1,1,1643103.02887041,56,B
47,3,1/9/95,20,f,141,The problem solved Phil,Non-sensible,edin_semantics,emo_sem_emo_sem,1.18735118512996,2,2,2,1,1643104.95735075,109,B
47,3,1/9/95,20,f,142,The carrots grated Tom,Non-sensible,edin_semantics,emo_sem_emo_sem,0.999066379154101,1,1,1,1,1643106.69800588,140,B
47,3,1/9/95,20,f,143,The office entered Joe,Non-sensible,edin_semantics,emo_sem_emo_sem,1.34026936767623,2,2,2,1,1643108.77974309,133,B
47,3,1/9/95,20,f,144,Luke climbed the hill,Sensible,edin_semantics,emo_sem_emo_sem,1.75147243333049,2,1,1,1,1643111.27320261,68,B
47,3,1/9/95,20,f,145,Leah sucked the lolly,Sensible,edin_semantics,emo_sem_emo_sem,1.70466374256648,1,1,1,1,1643113.71954683,12,B
47,3,1/9/95,20,f,146,Ewan wrote the story,Sensible,edin_semantics,emo_sem_emo_sem,1.78706067544408,2,1,1,1,1643116.24819947,74,B
47,3,1/9/95,20,f,147,The hair brushed Dan,Non-sensible,edin_semantics,emo_sem_emo_sem,2.13965249178,2,2,2,1,1643119.12976721,147,B
47,3,1/9/95,20,f,148,The poster read Luke,Non-sensible,edin_semantics,emo_sem_emo_sem,2.18723572534509,2,2,2,1,1643122.05834152,79,B
47,3,1/9/95,20,f,149,The curtains measured Rob,Non-sensible,edin_semantics,emo_sem_emo_sem,0.740250381175429,1,1,1,1,1643123.54003088,126,B
47,3,1/9/95,20,f,150,The ticket took Tim,Non-sensible,edin_semantics,emo_sem_emo_sem,0.893052462255582,1,1,1,1,1643125.17491167,128,B
47,3,1/9/95,20,f,24,John carried the kettle,Sensible,edin_semantics,emo_sem_emo_sem,1.1213854663074,1,1,1,1,1643167.48006907,105,A
47,3,1/9/95,20,f,25,The laptop fixed Jen,Non-sensible,edin_semantics,emo_sem_emo_sem,0.937377163674682,1,1,1,1,1643169.16164566,37,A
47,3,1/9/95,20,f,26,The milk sniffed Phil,Non-sensible,edin_semantics,emo_sem_emo_sem,1.04569546575658,1,2,2,1,1643170.9493465,18,A
47,3,1/9/95,20,f,27,The shelf dusted Jake,Non-sensible,edin_semantics,emo_sem_emo_sem,0.76320539531298,1,1,1,1,1643172.45477022,47,A
47,3,1/9/95,20,f,28,Kate hugged the pillow,Sensible,edin_semantics,emo_sem_emo_sem,0.775473962537944,1,2,2,1,1643173.97222358,86,A
47,3,1/9/95,20,f,29,The picture painted Ryan,Non-sensible,edin_semantics,emo_sem_emo_sem,0.92850119038485,1,1,1,1,1643175.64235618,35,A
47,3,1/9/95,20,f,30,The flour weighed Jen,Non-sensible,edin_semantics,emo_sem_emo_sem,1.74030779022723,1,2,2,1,1643178.12394771,64,A
47,3,1/9/95,20,f,31,The plans cancelled Ian,Non-sensible,edin_semantics,emo_sem_emo_sem,0.739786938065663,1,1,1,1,1643179.60558094,7,A
47,3,1/9/95,20,f,32,Adam watched the opera,Sensible,edin_semantics,emo_sem_emo_sem,0.810691450256854,1,2,2,1,1643181.15815878,108,A
47,3,1/9/95,20,f,33,The toffee chewed Ben,Non-sensible,edin_semantics,emo_sem_emo_sem,0.846210416639224,2,1,1,1,1643182.74606378,31,A
47,3,1/9/95,20,f,34,The folder carried Dan,Non-sensible,edin_semantics,emo_sem_emo_sem,0.928480985108763,2,2,2,1,1643184.41638336,30,A
47,3,1/9/95,20,f,35,Kate wore the dress,Sensible,edin_semantics,emo_sem_emo_sem,1.55242035840638,2,2,2,1,1643186.70966957,100,A
47,3,1/9/95,20,f,36,The movie watched Ella,Non-sensible,edin_semantics,emo_sem_emo_sem,1.37589353066869,2,1,1,1,1643188.8267208,33,A
47,3,1/9/95,20,f,37,The thread measured Amy,Non-sensible,edin_semantics,emo_sem_emo_sem,1.26980873453431,1,1,2,0,1643190.83749865,51,A
47,3,1/9/95,20,f,38,Ryan stroked the blanket,Sensible,edin_semantics,emo_sem_emo_sem,1.62255802494474,2,2,2,1,1643193.20151201,116,A
47,3,1/9/95,20,f,39,Ian labeled the box,Sensible,edin_semantics,emo_sem_emo_sem,1.72858541202731,2,2,2,1,1643195.67165474,136,A
47,3,1/9/95,20,f,40,Lucy wiped the desk,Sensible,edin_semantics,emo_sem_emo_sem,2.33971067052335,2,1,1,1,1643198.75277585,115,A
47,3,1/9/95,20,f,41,Liz weighed the sugar,Sensible,edin_semantics,emo_sem_emo_sem,1.38652224792168,2,1,1,1,1643200.88175312,139,A
47,3,1/9/95,20,f,42,The cheese grated Andy,Non-sensible,edin_semantics,emo_sem_emo_sem,1.48064925614744,1,1,1,1,1643203.1044071,65,A
47,3,1/9/95,20,f,43,The jar labeled Liz,Non-sensible,edin_semantics,emo_sem_emo_sem,1.50407444848679,2,1,1,1,1643205.35080059,61,A
47,3,1/9/95,20,f,44,Leo carried the wallet,Sensible,edin_semantics,emo_sem_emo_sem,0.763705079676583,2,2,2,1,1643206.8563433,150,A
47,3,1/9/95,20,f,45,The wine stored Leo,Non-sensible,edin_semantics,emo_sem_emo_sem,0.951380193699151,2,2,2,1,1643208.54981995,52,A
47,3,1/9/95,20,f,46,The garlic crushed Erin,Non-sensible,edin_semantics,emo_sem_emo_sem,1.30475777829997,2,2,2,1,1643210.59638617,6,A
47,3,1/9/95,20,f,47,The pill swallowed Luke,Non-sensible,edin_semantics,emo_sem_emo_sem,1.82225699536502,2,2,2,1,1643213.16028837,22,A
47,3,1/9/95,20,f,48,Max kicked the door,Sensible,edin_semantics,emo_sem_emo_sem,2.73937962180935,2,2,2,1,1643216.64163968,114,A
47,3,1/9/95,20,f,49,The fence jumped Jon,Non-sensible,edin_semantics,emo_sem_emo_sem,1.0692675486207,1,1,1,1,1643218.45294371,17,A
47,3,1/9/95,20,f,50,The potatoes mashed Will,Non-sensible,edin_semantics,emo_sem_emo_sem,0.975320144323632,2,2,2,1,1643220.16987891,28,A
47,3,1/9/95,20,f,51,The tree hugged Amy,Non-sensible,edin_semantics,emo_sem_emo_sem,1.21037707896903,1,1,1,1,1643222.12224115,11,A
47,3,1/9/95,20,f,52,The bill paid Mike,Non-sensible,edin_semantics,emo_sem_emo_sem,1.26946075120941,1,1,1,1,1643224.13365468,59,A
47,3,1/9/95,20,f,53,The herbs chopped Phil,Non-sensible,edin_semantics,emo_sem_emo_sem,1.25769924512133,2,1,1,1,1643226.13311618,27,A
47,3,1/9/95,20,f,54,Fred chopped the carrots,Sensible,edin_semantics,emo_sem_emo_sem,0.999926554737613,2,2,2,1,1643227.87372224,102,A
47,3,1/9/95,20,f,55,Bill trimmed the hair,Sensible,edin_semantics,emo_sem_emo_sem,1.06966780917719,1,1,1,1,1643229.68468631,107,A
47,3,1/9/95,20,f,56,The fruits mixed Jack,Non-sensible,edin_semantics,emo_sem_emo_sem,1.19903026591055,2,2,2,1,1643231.6254907,8,A
47,3,1/9/95,20,f,57,The bushes trimmed Jon,Non-sensible,edin_semantics,emo_sem_emo_sem,2.24625172535889,2,2,2,1,1643234.61260828,32,A
47,3,1/9/95,20,f,58,The hill climbed Luke,Non-sensible,edin_semantics,emo_sem_emo_sem,2.89254187350161,2,2,2,1,1643238.24705257,68,A
47,3,1/9/95,20,f,59,Eve typed the message,Sensible,edin_semantics,emo_sem_emo_sem,3.1872437435668,1,2,2,1,1643242.17538057,124,A
47,3,1/9/95,20,f,60,The paper cut Jon,Non-sensible,edin_semantics,emo_sem_emo_sem,2.52841498074122,2,2,2,1,1643245.444875,20,A
47,3,1/9/95,20,f,61,Jay painted the portrait,Sensible,edin_semantics,emo_sem_emo_sem,0.739673723233864,1,2,2,1,1643246.92697872,110,A
47,3,1/9/95,20,f,62,Ian pushed the button,Sensible,edin_semantics,emo_sem_emo_sem,1.27894898224622,2,1,1,1,1643248.94951937,101,A
47,3,1/9/95,20,f,63,Sam sucked the candy,Sensible,edin_semantics,emo_sem_emo_sem,1.18862412963063,1,1,1,1,1643250.8786527,87,A
47,3,1/9/95,20,f,64,The trolley pushed Matt,Non-sensible,edin_semantics,emo_sem_emo_sem,1.50603309599683,1,2,2,1,1643253.12503464,26,A
47,3,1/9/95,20,f,65,Lucy cut the ribbon,Sensible,edin_semantics,emo_sem_emo_sem,2.76502420799807,2,1,1,1,1643256.62967163,95,A
47,3,1/9/95,20,f,66,Leo passed the salt,Sensible,edin_semantics,emo_sem_emo_sem,0.999533991562203,1,2,2,1,1643258.37031169,118,A
47,3,1/9/95,20,f,67,Liam mixed the nuts,Sensible,edin_semantics,emo_sem_emo_sem,1.15191656863317,1,1,1,1,1643260.26398058,83,A
47,3,1/9/95,20,f,68,The scarf knitted Tom,Non-sensible,edin_semantics,emo_sem_emo_sem,0.694106225389987,1,2,2,1,1643261.69874354,66,A
47,3,1/9/95,20,f,69,Josh scrubbed the pot,Sensible,edin_semantics,emo_sem_emo_sem,0.752289952943102,1,1,1,1,1643263.19228292,131,A
47,3,1/9/95,20,f,70,Anna polished the trophy,Sensible,edin_semantics,emo_sem_emo_sem,0.728717870311812,1,2,2,1,1643264.66256132,104,A
47,3,1/9/95,20,f,71,The table wiped Beth,Non-sensible,edin_semantics,emo_sem_emo_sem,1.18712379341014,1,2,2,1,1643266.59153109,40,A
47,3,1/9/95,20,f,72,The number dialed Tom,Non-sensible,edin_semantics,emo_sem_emo_sem,0.740895031485707,1,1,1,1,1643268.0733003,63,A
47,3,1/9/95,20,f,73,Luke fixed the radio,Sensible,edin_semantics,emo_sem_emo_sem,0.963708415161818,2,2,2,1,1643269.77872255,112,A
47,3,1/9/95,20,f,74,Joe entered the office,Sensible,edin_semantics,emo_sem_emo_sem,0.976005847332999,2,1,1,1,1643271.49601215,133,A
47,3,1/9/95,20,f,75,Josh crushed the ice,Sensible,edin_semantics,emo_sem_emo_sem,1.0945417014882,2,1,1,1,1643273.33065189,81,A
47,3,1/9/95,20,f,76,The shirt ironed Josh,Non-sensible,edin_semantics,emo_sem_emo_sem,1.25865788222291,2,1,1,1,1643275.32987125,55,A
47,3,1/9/95,20,f,77,Eve ironed the trousers,Sensible,edin_semantics,emo_sem_emo_sem,0.988664732780308,2,2,2,1,1643277.0589804,130,A
47,3,1/9/95,20,f,78,Tom visited the hospital,Sensible,edin_semantics,emo_sem_emo_sem,0.847163922153413,1,1,1,1,1643278.64681838,91,A
47,3,1/9/95,20,f,79,The handle pulled Tim,Non-sensible,edin_semantics,emo_sem_emo_sem,1.78788268496282,2,1,1,1,1643281.17547678,73,A
47,3,1/9/95,20,f,80,The sheets counted Bill,Non-sensible,edin_semantics,emo_sem_emo_sem,1.09406318468973,2,2,2,1,1643283.01011043,48,A
47,3,1/9/95,20,f,81,The tomato sliced Liz,Non-sensible,edin_semantics,emo_sem_emo_sem,1.03569408040494,1,1,1,1,1643284.78606997,3,A
47,3,1/9/95,20,f,82,Fred stored the rice,Sensible,edin_semantics,emo_sem_emo_sem,1.51706431875937,1,1,1,1,1643287.0439857,127,A
47,3,1/9/95,20,f,83,The pen described John,Non-sensible,edin_semantics,emo_sem_emo_sem,1.08192515117116,2,2,2,1,1643288.86717952,42,A
47,3,1/9/95,20,f,84,The photo took Beth,Non-sensible,edin_semantics,emo_sem_emo_sem,0.847151093184948,1,1,1,1,1643290.45472757,53,A
47,3,1/9/95,20,f,85,Liam sliced the onion,Sensible,edin_semantics,emo_sem_emo_sem,2.02284821402282,2,2,2,1,1643293.21892046,78,A
47,3,1/9/95,20,f,86,Adam chewed the fat,Sensible,edin_semantics,emo_sem_emo_sem,1.56463857227936,1,2,2,1,1643295.5239159,106,A
47,3,1/9/95,20,f,87,The lesson taught Eve,Non-sensible,edin_semantics,emo_sem_emo_sem,1.2469239581842,1,1,1,1,1643297.51143662,15,A
47,3,1/9/95,20,f,88,Alex dusted the house,Sensible,edin_semantics,emo_sem_emo_sem,0.881889102282003,2,2,2,1,1643299.13444141,122,A
47,3,1/9/95,20,f,89,Jay sold the bed,Sensible,edin_semantics,emo_sem_emo_sem,1.18820238043554,2,1,1,1,1643301.06356287,113,A
47,3,1/9/95,20,f,90,Zoe paid the debt,Sensible,edin_semantics,emo_sem_emo_sem,1.12911742506549,1,2,2,1,1643302.93359425,134,A
47,3,1/9/95,20,f,91,The puzzle solved Joe,Non-sensible,edin_semantics,emo_sem_emo_sem,0.999443547800183,2,2,2,1,1643304.674081,34,A
47,3,1/9/95,20,f,92,The juice drank Matt,Non-sensible,edin_semantics,emo_sem_emo_sem,1.046382131055,1,2,2,1,1643306.46187517,60,A
47,3,1/9/95,20,f,93,The room entered Ryan,Non-sensible,edin_semantics,emo_sem_emo_sem,1.41085315821692,2,2,2,1,1643308.61409065,58,A
47,3,1/9/95,20,f,94,Hugh dialed the hotline,Sensible,edin_semantics,emo_sem_emo_sem,1.01141031598672,1,2,2,1,1643310.36651755,138,A
47,3,1/9/95,20,f,95,The wall punched Jane,Non-sensible,edin_semantics,emo_sem_emo_sem,0.928996705450118,1,2,2,1,1643312.03674092,50,A
47,3,1/9/95,20,f,96,The book read Sean,Non-sensible,edin_semantics,emo_sem_emo_sem,2.7284773287829,2,2,2,1,1643315.50614278,4,A
47,3,1/9/95,20,f,97,Ian filed the report,Sensible,edin_semantics,emo_sem_emo_sem,1.90473891980946,2,1,1,1,1643318.15239348,99,A
47,3,1/9/95,20,f,98,Lucy counted the shoes,Sensible,edin_semantics,emo_sem_emo_sem,1.18747209711,2,1,1,1,1643320.08144728,123,A
47,3,1/9/95,20,f,99,Erin punched the monitor,Sensible,edin_semantics,emo_sem_emo_sem,1.2114749092143,1,1,1,1,1643322.03381433,125,A
47,3,1/9/95,20,f,100,Emma pulled the rope,Sensible,edin_semantics,emo_sem_emo_sem,3.25773260020651,2,2,2,1,1643326.03242496,120,A
47,3,1/9/95,20,f,101,Tom offered the sweets,Sensible,edin_semantics,emo_sem_emo_sem,1.08046426391229,2,2,2,1,1643327.85540262,84,A
47,3,1/9/95,20,f,102,Rob measured the curtains,Sensible,edin_semantics,emo_sem_emo_sem,0.893199673620984,1,2,2,1,1643329.49035879,126,A
47,3,1/9/95,20,f,103,Rose built the shed,Sensible,edin_semantics,emo_sem_emo_sem,1.84539866982959,2,1,1,1,1643332.07755211,121,A
47,3,1/9/95,20,f,104,The towels passed Phil,Non-sensible,edin_semantics,emo_sem_emo_sem,1.32817976316437,2,1,1,1,1643334.14776386,43,A
47,3,1/9/95,20,f,105,The money offered Matt,Non-sensible,edin_semantics,emo_sem_emo_sem,1.16446063597687,2,1,1,1,1643336.05314519,9,A
47,3,1/9/95,20,f,106,Josh taught the rules,Sensible,edin_semantics,emo_sem_emo_sem,1.36389950104058,1,2,2,1,1643338.15816294,90,A
47,3,1/9/95,20,f,107,The bowl scrubbed Liz,Non-sensible,edin_semantics,emo_sem_emo_sem,1.14035487198271,2,2,2,1,1643340.04020118,56,A
47,3,1/9/95,20,f,108,The dish served Kate,Non-sensible,edin_semantics,emo_sem_emo_sem,0.881984677398577,1,2,2,1,1643341.66324638,70,A
47,3,1/9/95,20,f,109,Jack drank the beer,Sensible,edin_semantics,emo_sem_emo_sem,0.975836185505614,2,1,1,1,1643343.38001609,135,A
47,3,1/9/95,20,f,110,Luke read the poster,Sensible,edin_semantics,emo_sem_emo_sem,0.940251792082563,2,1,1,1,1643345.06198236,79,A
47,3,1/9/95,20,f,111,The lolly sucked Leah,Non-sensible,edin_semantics,emo_sem_emo_sem,1.18748749187216,1,2,2,1,1643346.99097072,12,A
47,3,1/9/95,20,f,112,The lorry dented Lily,Non-sensible,edin_semantics,emo_sem_emo_sem,1.24773987405933,2,1,1,1,1643348.97868901,71,A
47,3,1/9/95,20,f,113,Ben got the radio,Sensible,edin_semantics,emo_sem_emo_sem,1.04819324635901,2,2,2,1,1643350.7664681,88,A
47,3,1/9/95,20,f,114,The papers filed Lara,Non-sensible,edin_semantics,emo_sem_emo_sem,1.07014536391944,1,2,2,1,1643352.57738181,24,A
47,3,1/9/95,20,f,115,Jane licked the plate,Sensible,edin_semantics,emo_sem_emo_sem,0.752324590925127,1,2,2,1,1643354.07100009,96,A
47,3,1/9/95,20,f,116,Andy pulled the rope,Sensible,edin_semantics,emo_sem_emo_sem,2.02290401956998,2,2,2,1,1643356.83503166,148,A
47,3,1/9/95,20,f,117,Phil solved the problem,Sensible,edin_semantics,emo_sem_emo_sem,1.787751509808,2,1,1,1,1643359.36371509,109,A
47,3,1/9/95,20,f,118,Fred served the dessert,Sensible,edin_semantics,emo_sem_emo_sem,1.58699511992745,2,1,1,1,1643361.69228805,145,A
47,3,1/9/95,20,f,119,Dan brushed the hair,Sensible,edin_semantics,emo_sem_emo_sem,1.40993076260202,2,1,1,1,1643363.84473606,147,A
47,3,1/9/95,20,f,120,Owen swallowed the gum,Sensible,edin_semantics,emo_sem_emo_sem,0.833930623950437,1,1,1,1,1643365.42084236,97,A
47,3,1/9/95,20,f,121,The parcel mailed Rob,Non-sensible,edin_semantics,emo_sem_emo_sem,1.21021735947579,2,2,2,1,1643367.37317573,14,A
47,3,1/9/95,20,f,122,Jack posted the gift,Sensible,edin_semantics,emo_sem_emo_sem,0.845008993055671,1,1,1,1,1643368.96082192,111,A
47,3,1/9/95,20,f,123,The lever pulled Hugh,Non-sensible,edin_semantics,emo_sem_emo_sem,1.65573764708824,2,1,1,1,1643371.36020992,45,A
47,3,1/9/95,20,f,124,Luke watered the plants,Sensible,edin_semantics,emo_sem_emo_sem,0.797787212766707,1,1,1,1,1643372.90093035,129,A
47,3,1/9/95,20,f,125,The bike kicked Matt,Non-sensible,edin_semantics,emo_sem_emo_sem,2.10287533421069,2,1,1,1,1643375.74695892,39,A
47,3,1/9/95,20,f,126,Joe iced the donut,Sensible,edin_semantics,emo_sem_emo_sem,1.31465075956658,2,1,1,1,1643377.80504162,119,A
47,3,1/9/95,20,f,127,The card posted Erin,Non-sensible,edin_semantics,emo_sem_emo_sem,1.64377857628278,2,2,2,1,1643380.19279383,36,A
47,3,1/9/95,20,f,128,The museum visited Mary,Non-sensible,edin_semantics,emo_sem_emo_sem,1.1145669228863,2,2,2,1,1643382.05093574,16,A
47,3,1/9/95,20,f,129,The ham ate Tim,Non-sensible,edin_semantics,emo_sem_emo_sem,0.914749606279656,1,1,1,1,1643383.70926899,67,A
47,3,1/9/95,20,f,130,Jack cleaned the bath,Sensible,edin_semantics,emo_sem_emo_sem,1.53762771142647,2,2,2,1,1643385.99081774,80,A
47,3,1/9/95,20,f,131,The story wrote Ewan,Non-sensible,edin_semantics,emo_sem_emo_sem,1.30239373841323,1,2,2,1,1643388.03736183,74,A
47,3,1/9/95,20,f,132,Tim took the ticket,Sensible,edin_semantics,emo_sem_emo_sem,1.36155630834401,1,2,2,1,1643390.14249312,128,A
47,3,1/9/95,20,f,133,The room searched Jen,Non-sensible,edin_semantics,emo_sem_emo_sem,1.74958658986725,2,2,2,1,1643392.63598728,10,A
47,3,1/9/95,20,f,134,Erin described the church,Sensible,edin_semantics,emo_sem_emo_sem,4.18408399331383,2,1,1,1,1643397.56392176,117,A
47,3,1/9/95,20,f,135,The jumper wore Joe,Non-sensible,edin_semantics,emo_sem_emo_sem,1.20988637465052,1,1,1,1,1643399.5162808,25,A
47,3,1/9/95,20,f,136,The mirror kissed Max,Non-sensible,edin_semantics,emo_sem_emo_sem,1.24445632542484,2,1,1,1,1643401.50381049,23,A
47,3,1/9/95,20,f,137,Erin tidied the garage,Sensible,edin_semantics,emo_sem_emo_sem,1.75018826359883,2,1,1,1,1643403.99729888,77,A
47,3,1/9/95,20,f,138,Ian dented the bowl,Sensible,edin_semantics,emo_sem_emo_sem,0.94089291500859,1,2,2,1,1643405.67937323,146,A
47,3,1/9/95,20,f,139,Ella mashed the turnip,Sensible,edin_semantics,emo_sem_emo_sem,0.893392748199403,1,1,1,1,1643407.31384896,103,A
47,3,1/9/95,20,f,140,The letter typed Phil,Non-sensible,edin_semantics,emo_sem_emo_sem,1.02284372365102,2,1,2,0,1643409.07810054,49,A
47,3,1/9/95,20,f,141,The fur stroked Rob,Non-sensible,edin_semantics,emo_sem_emo_sem,2.2576219511684,2,1,1,1,1643412.07732344,41,A
47,3,1/9/95,20,f,142,Phil cancelled the party,Sensible,edin_semantics,emo_sem_emo_sem,1.91663256310858,2,2,2,1,1643414.73515123,82,A
47,3,1/9/95,20,f,143,Fred lent the car,Sensible,edin_semantics,emo_sem_emo_sem,1.83406308223493,2,2,2,1,1643417.310847,94,A
47,3,1/9/95,20,f,144,The house built Kate,Non-sensible,edin_semantics,emo_sem_emo_sem,1.48146709660068,1,2,2,1,1643419.53401478,46,A
47,3,1/9/95,20,f,145,The room tidied Sam,Non-sensible,edin_semantics,emo_sem_emo_sem,2.3754765924532,2,2,2,1,1643422.65066736,2,A
47,3,1/9/95,20,f,146,Tom whisked the cream,Sensible,edin_semantics,emo_sem_emo_sem,1.73955120774917,2,1,1,1,1643425.1322265,137,A
47,3,1/9/95,20,f,147,Ryan knitted the socks,Sensible,edin_semantics,emo_sem_emo_sem,1.24550829268992,2,1,1,1,1643427.1199852,141,A
47,3,1/9/95,20,f,148,The kettle got Lily,Non-sensible,edin_semantics,emo_sem_emo_sem,1.46897081681527,1,1,1,1,1643429.33078082,13,A
47,3,1/9/95,20,f,149,The bucket lent Max,Non-sensible,edin_semantics,emo_sem_emo_sem,0.891789781162515,1,1,1,1,1643430.96568663,19,A
47,3,1/9/95,20,f,150,Sara jumped the hedge,Sensible,edin_semantics,emo_sem_emo_sem,1.01109440508299,1,2,2,1,1643432.71810679,92,A
47,3,1/9/95,20,f,151,Ian mailed the invite,Sensible,edin_semantics,emo_sem_emo_sem,1.16370758134872,1,1,1,1,1643434.62342333,89,A
47,3,1/9/95,20,f,152,The floor cleaned Tim,Non-sensible,edin_semantics,emo_sem_emo_sem,1.46989898546599,2,1,2,0,1643436.83465064,5,A
47,3,1/9/95,20,f,153,The eggs whisked Dan,Non-sensible,edin_semantics,emo_sem_emo_sem,2.09227676480077,1,2,2,1,1643439.6688526,62,A
47,3,1/9/95,20,f,154,Ben climbed the stairs,Sensible,edin_semantics,emo_sem_emo_sem,1.31596154952422,2,1,1,1,1643441.72730605,143,A
47,3,1/9/95,20,f,155,Alex wrote the report,Sensible,edin_semantics,emo_sem_emo_sem,0.987038353225216,1,1,1,1,1643443.45595946,149,A
47,3,1/9/95,20,f,156,The sofa sold Carl,Non-sensible,edin_semantics,emo_sem_emo_sem,1.16376531147398,2,2,2,1,1643445.36127439,38,A
47,3,1/9/95,20,f,157,The coins polished Jon,Non-sensible,edin_semantics,emo_sem_emo_sem,1.66903669317253,1,1,1,1,1643447.77229304,29,A
47,3,1/9/95,20,f,158,Hugh kissed the rose,Sensible,edin_semantics,emo_sem_emo_sem,1.3749890953768,1,2,2,1,1643449.88933369,98,A
47,3,1/9/95,20,f,159,The ball squeezed Josh,Non-sensible,edin_semantics,emo_sem_emo_sem,2.36290077399462,2,1,1,1,1643452.99428378,1,A
47,3,1/9/95,20,f,160,The box lifted Kate,Non-sensible,edin_semantics,emo_sem_emo_sem,1.51642447919585,1,1,1,1,1643455.25267386,69,A
47,3,1/9/95,20,f,161,Tom grated the carrots,Sensible,edin_semantics,emo_sem_emo_sem,2.50397181767039,2,2,2,1,1643458.49849197,140,A
47,3,1/9/95,20,f,162,The spoon licked Will,Non-sensible,edin_semantics,emo_sem_emo_sem,1.16349109401926,1,1,1,1,1643460.40403205,21,A
47,3,1/9/95,20,f,163,The teeth brushed Carl,Non-sensible,edin_semantics,emo_sem_emo_sem,1.09304489335045,2,2,2,1,1643462.23856082,72,A
47,3,1/9/95,20,f,164,The dishes washed Mark,Non-sensible,edin_semantics,emo_sem_emo_sem,1.08092225459404,1,1,1,1,1643464.06182841,57,A
47,3,1/9/95,20,f,165,Max searched the internet,Sensible,edin_semantics,emo_sem_emo_sem,1.85761688370258,2,1,1,1,1643466.66105329,85,A
47,3,1/9/95,20,f,166,The garden watered Jeff,Non-sensible,edin_semantics,emo_sem_emo_sem,2.10391318961047,2,2,2,1,1643469.50710238,54,A
47,3,1/9/95,20,f,167,Beth washed the pan,Sensible,edin_semantics,emo_sem_emo_sem,0.681197177153081,1,2,2,1,1643470.93017247,132,A
47,3,1/9/95,20,f,168,Amy lifted the crate,Sensible,edin_semantics,emo_sem_emo_sem,0.892580039333552,1,2,2,1,1643472.56520368,144,A
47,3,1/9/95,20,f,169,The gun carried Ryan,Non-sensible,edin_semantics,emo_sem_emo_sem,0.964541329536587,2,1,1,1,1643474.27056243,75,A
47,3,1/9/95,20,f,170,Jay squeezed the lemon,Sensible,edin_semantics,emo_sem_emo_sem,0.987382487626746,1,2,2,1,1643475.99924342,76,A
47,3,1/9/95,20,f,171,The cake iced Mary,Non-sensible,edin_semantics,emo_sem_emo_sem,1.34042491787113,2,2,2,1,1643478.08097293,44,A
47,3,1/9/95,20,f,172,Tim sniffed the perfume,Sensible,edin_semantics,emo_sem_emo_sem,0.951936325291172,1,1,1,1,1643479.77449769,93,A
47,3,1/9/95,20,f,173,Mike ate the steak,Sensible,edin_semantics,emo_sem_emo_sem,3.29294174932875,2,2,2,1,1643483.80889894,142,A
