subject_column,AssignedList_column,subject_dob_column,subject_age_column,subject_gender_column,trialnum_column,Stim_column,Type_column,Experiment_column,OrderGroup_column,ReactionTime_column,StimSide_column,StimPosition_column,Response_column,Valid_column,TrialEndSecs_column,PairID_column,List_column
48,4,25/2/95,21,f,1,Phil sniffed the milk,Sensible,edin_semantics,sem_emo_sem_emo,1.23680711281486,1,2,2,1,1646754.58904902,18,B
48,4,25/2/95,21,f,2,The salt passed Leo,Non-sensible,edin_semantics,sem_emo_sem_emo,1.20488119195215,1,2,2,1,1646756.54136508,118,B
48,4,25/2/95,21,f,3,Josh ironed the shirt,Sensible,edin_semantics,sem_emo_sem_emo,1.2640283673536,1,1,1,1,1646758.55249028,55,B
48,4,25/2/95,21,f,4,Phil passed the towels,Sensible,edin_semantics,sem_emo_sem_emo,0.970660058083013,1,1,1,1,1646760.26965992,43,B
48,4,25/2/95,21,f,5,The trophy polished Anna,Non-sensible,edin_semantics,sem_emo_sem_emo,1.09064781921916,1,2,1,0,1646762.10438337,104,B
48,4,25/2/95,21,f,6,The sweets offered Tom,Non-sensible,edin_semantics,sem_emo_sem_emo,1.12599231302738,2,2,2,1,1646763.97440865,84,B
48,4,25/2/95,21,f,7,The ribbon cut Lucy,Non-sensible,edin_semantics,sem_emo_sem_emo,1.22010713396594,2,1,1,1,1646765.93856448,95,B
48,4,25/2/95,21,f,8,The rice stored Fred,Non-sensible,edin_semantics,sem_emo_sem_emo,1.04361141636036,1,1,1,1,1646767.72626563,127,B
48,4,25/2/95,21,f,9,The shed built Rose,Non-sensible,edin_semantics,sem_emo_sem_emo,0.961302040377632,1,1,1,1,1646769.43161732,121,B
48,4,25/2/95,21,f,10,The party cancelled Phil,Non-sensible,edin_semantics,sem_emo_sem_emo,1.12584638455883,2,2,2,1,1646771.30163523,82,B
48,4,25/2/95,21,f,11,The crate lifted Amy,Non-sensible,edin_semantics,sem_emo_sem_emo,1.07927374495193,1,2,2,1,1646773.12459525,144,B
48,4,25/2/95,21,f,12,Will licked the spoon,Sensible,edin_semantics,sem_emo_sem_emo,1.26716213906184,1,1,1,1,1646775.13580832,21,B
48,4,25/2/95,21,f,13,The gum swallowed Owen,Non-sensible,edin_semantics,sem_emo_sem_emo,1.25554078817368,1,1,1,1,1646777.13517714,97,B
48,4,25/2/95,21,f,14,Kate lifted the box,Sensible,edin_semantics,sem_emo_sem_emo,1.30280041345395,2,1,1,1,1646779.181617,69,B
48,4,25/2/95,21,f,15,Eve taught the lesson,Sensible,edin_semantics,sem_emo_sem_emo,1.14943129615858,2,1,1,1,1646781.07516273,15,B
48,4,25/2/95,21,f,16,Lily dented the lorry,Sensible,edin_semantics,sem_emo_sem_emo,1.29072588286363,1,1,1,1,1646783.10984911,71,B
48,4,25/2/95,21,f,17,The opera watched Adam,Non-sensible,edin_semantics,sem_emo_sem_emo,1.39648707117885,1,2,2,1,1646785.2503714,108,B
48,4,25/2/95,21,f,18,Tim pulled the handle,Sensible,edin_semantics,sem_emo_sem_emo,1.38444589567371,1,1,1,1,1646787.37914437,73,B
48,4,25/2/95,21,f,19,The pan washed Beth,Non-sensible,edin_semantics,sem_emo_sem_emo,1.93731205700897,1,2,2,1,1646790.06070364,132,B
48,4,25/2/95,21,f,20,The onion sliced Liam,Non-sensible,edin_semantics,sem_emo_sem_emo,1.46723699546419,2,2,2,1,1646792.27181357,78,B
48,4,25/2/95,21,f,21,Leo stored the wine,Sensible,edin_semantics,sem_emo_sem_emo,1.32619898603298,2,2,2,1,1646794.34175495,52,B
48,4,25/2/95,21,f,22,Rob mailed the parcel,Sensible,edin_semantics,sem_emo_sem_emo,1.56124469521455,2,2,2,1,1646796.64694827,14,B
48,4,25/2/95,21,f,23,The socks knitted Ryan,Non-sensible,edin_semantics,sem_emo_sem_emo,1.47882691537961,1,1,1,1,1646798.86986364,141,B
48,4,25/2/95,21,f,24,The poster read Luke,Non-sensible,edin_semantics,sem_emo_sem_emo,1.31372227030806,2,1,1,1,1646800.92801562,79,B
48,4,25/2/95,21,f,25,Ben chewed the toffee,Sensible,edin_semantics,sem_emo_sem_emo,1.3373142380733,2,1,1,1,1646803.00976341,31,B
48,4,25/2/95,21,f,26,Mike paid the bill,Sensible,edin_semantics,sem_emo_sem_emo,1.33758973795921,2,1,1,1,1646805.09152082,59,B
48,4,25/2/95,21,f,27,The candy sucked Sam,Non-sensible,edin_semantics,sem_emo_sem_emo,1.51392669836059,1,1,1,1,1646807.34965112,87,B
48,4,25/2/95,21,f,28,Max kissed the mirror,Sensible,edin_semantics,sem_emo_sem_emo,1.49064935883507,2,1,1,1,1646809.58426033,23,B
48,4,25/2/95,21,f,29,Max lent the bucket,Sensible,edin_semantics,sem_emo_sem_emo,1.25508536328562,2,1,1,1,1646811.58367918,19,B
48,4,25/2/95,21,f,30,Josh squeezed the ball,Sensible,edin_semantics,sem_emo_sem_emo,1.06721364683472,2,1,1,1,1646813.3948809,1,B
48,4,25/2/95,21,f,31,The hotline dialed Hugh,Non-sensible,edin_semantics,sem_emo_sem_emo,1.31353176175617,2,2,2,1,1646815.45310696,138,B
48,4,25/2/95,21,f,32,Kate built the house,Sensible,edin_semantics,sem_emo_sem_emo,1.18460644874722,2,2,2,1,1646817.38190001,46,B
48,4,25/2/95,21,f,33,Mary visited the museum,Sensible,edin_semantics,sem_emo_sem_emo,1.71351918950677,1,2,2,1,1646819.83999836,16,B
48,4,25/2/95,21,f,34,Andy grated the cheese,Sensible,edin_semantics,sem_emo_sem_emo,1.83163297385909,2,1,1,1,1646822.41573839,65,B
48,4,25/2/95,21,f,35,The rose kissed Hugh,Non-sensible,edin_semantics,sem_emo_sem_emo,1.50163696357049,1,2,2,1,1646824.66207928,98,B
48,4,25/2/95,21,f,36,Luke swallowed the pill,Sensible,edin_semantics,sem_emo_sem_emo,2.24312885827385,1,2,2,1,1646827.6494701,22,B
48,4,25/2/95,21,f,37,Jeff watered the garden,Sensible,edin_semantics,sem_emo_sem_emo,1.46645700000227,1,2,2,1,1646829.86053353,54,B
48,4,25/2/95,21,f,38,Matt kicked the bike,Sensible,edin_semantics,sem_emo_sem_emo,1.79637796152383,2,1,1,1,1646832.40092907,39,B
48,4,25/2/95,21,f,39,The kettle carried John,Non-sensible,edin_semantics,sem_emo_sem_emo,1.25444071274251,1,1,1,1,1646834.40035241,105,B
48,4,25/2/95,21,f,40,Hugh pulled the lever,Sensible,edin_semantics,sem_emo_sem_emo,1.77224814356305,1,1,1,1,1646836.9172631,45,B
48,4,25/2/95,21,f,41,The hedge jumped Sara,Non-sensible,edin_semantics,sem_emo_sem_emo,1.47888528672047,2,2,2,1,1646839.14008899,92,B
48,4,25/2/95,21,f,42,The report filed Ian,Non-sensible,edin_semantics,sem_emo_sem_emo,1.38455077144317,1,1,1,1,1646841.26885876,99,B
48,4,25/2/95,21,f,43,Dan whisked the eggs,Sensible,edin_semantics,sem_emo_sem_emo,1.79653703933582,1,2,2,1,1646843.80927867,62,B
48,4,25/2/95,21,f,44,Phil typed the letter,Sensible,edin_semantics,sem_emo_sem_emo,1.1141374767758,2,1,1,1,1646845.66754021,49,B
48,4,25/2/95,21,f,45,The report wrote Alex,Non-sensible,edin_semantics,sem_emo_sem_emo,1.56102243508212,2,1,1,1,1646847.97278035,149,B
48,4,25/2/95,21,f,46,The curtains measured Rob,Non-sensible,edin_semantics,sem_emo_sem_emo,1.7371031390503,1,2,2,1,1646850.45438504,126,B
48,4,25/2/95,21,f,47,Lara filed the papers,Sensible,edin_semantics,sem_emo_sem_emo,1.72556774155237,1,2,2,1,1646852.92418588,24,B
48,4,25/2/95,21,f,48,The steak ate Mike,Non-sensible,edin_semantics,sem_emo_sem_emo,3.51360373175703,2,2,2,1,1646857.18185402,142,B
48,4,25/2/95,21,f,49,Carl brushed the teeth,Sensible,edin_semantics,sem_emo_sem_emo,0.925923870876431,2,2,2,1,1646858.85202318,72,B
48,4,25/2/95,21,f,50,Dan carried the folder,Sensible,edin_semantics,sem_emo_sem_emo,1.23045425722376,2,2,2,1,1646860.82770253,30,B
48,4,25/2/95,21,f,51,Ryan entered the room,Sensible,edin_semantics,sem_emo_sem_emo,1.78423800365999,1,2,2,1,1646863.35637024,58,B
48,4,25/2/95,21,f,52,The sugar weighed Liz,Non-sensible,edin_semantics,sem_emo_sem_emo,1.3373148792889,2,1,1,1,1646865.43809815,139,B
48,4,25/2/95,21,f,53,Beth wiped the table,Sensible,edin_semantics,sem_emo_sem_emo,1.43148358166218,2,2,2,1,1646867.61390143,40,B
48,4,25/2/95,21,f,54,The desk wiped Lucy,Non-sensible,edin_semantics,sem_emo_sem_emo,1.39633793546818,2,1,1,1,1646869.75449107,115,B
48,4,25/2/95,21,f,55,The internet searched Max,Non-sensible,edin_semantics,sem_emo_sem_emo,1.5142528724391,2,1,1,1,1646872.01259089,85,B
48,4,25/2/95,21,f,56,Leah sucked the lolly,Sensible,edin_semantics,sem_emo_sem_emo,1.54914194112644,1,2,2,1,1646874.30600667,12,B
48,4,25/2/95,21,f,57,Amy hugged the tree,Sensible,edin_semantics,sem_emo_sem_emo,1.47882434981875,2,1,1,1,1646876.52886784,11,B
48,4,25/2/95,21,f,58,The pot scrubbed Josh,Non-sensible,edin_semantics,sem_emo_sem_emo,1.39643960422836,1,1,1,1,1646878.66940616,131,B
48,4,25/2/95,21,f,59,Jen weighed the flour,Sensible,edin_semantics,sem_emo_sem_emo,1.54955182340927,1,2,2,1,1646880.96287582,64,B
48,4,25/2/95,21,f,60,The cream whisked Tom,Non-sensible,edin_semantics,sem_emo_sem_emo,1.34947440144606,1,1,1,1,1646883.05636812,137,B
48,4,25/2/95,21,f,61,Tim cleaned the floor,Sensible,edin_semantics,sem_emo_sem_emo,1.46660741884261,1,1,1,1,1646885.26742449,5,B
48,4,25/2/95,21,f,62,The wallet carried Leo,Non-sensible,edin_semantics,sem_emo_sem_emo,1.43198486976326,1,2,2,1,1646887.44322969,150,B
48,4,25/2/95,21,f,63,The bath cleaned Jack,Non-sensible,edin_semantics,sem_emo_sem_emo,1.40858533489518,1,2,2,1,1646889.59556448,80,B
48,4,25/2/95,21,f,64,Phil chopped the herbs,Sensible,edin_semantics,sem_emo_sem_emo,1.07869355939329,1,1,1,1,1646891.41853091,27,B
48,4,25/2/95,21,f,65,Matt offered the money,Sensible,edin_semantics,sem_emo_sem_emo,2.43085464648902,2,1,1,1,1646894.5940433,9,B
48,4,25/2/95,21,f,66,The beer drank Jack,Non-sensible,edin_semantics,sem_emo_sem_emo,1.44348017685115,1,1,1,1,1646896.78161803,135,B
48,4,25/2/95,21,f,67,Ryan painted the picture,Sensible,edin_semantics,sem_emo_sem_emo,1.46716419165023,1,1,1,1,1646898.99274912,35,B
48,4,25/2/95,21,f,68,The bowl dented Ian,Non-sensible,edin_semantics,sem_emo_sem_emo,1.41989494441077,2,2,2,1,1646901.15679763,146,B
48,4,25/2/95,21,f,69,Jon jumped the fence,Sensible,edin_semantics,sem_emo_sem_emo,1.34927202598192,1,1,1,1,1646903.25027839,17,B
48,4,25/2/95,21,f,70,Ryan carried the gun,Sensible,edin_semantics,sem_emo_sem_emo,1.89040586701594,2,1,1,1,1646905.88480222,75,B
48,4,25/2/95,21,f,71,The dress wore Kate,Non-sensible,edin_semantics,sem_emo_sem_emo,1.30237930617295,1,2,2,1,1646907.93123246,100,B
48,4,25/2/95,21,f,72,Lily got the kettle,Sensible,edin_semantics,sem_emo_sem_emo,1.36146971373819,1,1,1,1,1646910.03646061,13,B
48,4,25/2/95,21,f,73,The monitor punched Erin,Non-sensible,edin_semantics,sem_emo_sem_emo,1.49065865972079,1,1,1,1,1646912.27113332,125,B
48,4,25/2/95,21,f,74,Ian cancelled the plans,Sensible,edin_semantics,sem_emo_sem_emo,1.4904572465457,1,1,1,1,1646914.50580378,7,B
48,4,25/2/95,21,f,75,Matt pushed the trolley,Sensible,edin_semantics,sem_emo_sem_emo,1.40811451547779,2,2,2,1,1646916.65804492,26,B
48,4,25/2/95,21,f,76,Jane punched the wall,Sensible,edin_semantics,sem_emo_sem_emo,1.45537734846585,2,2,2,1,1646918.85741258,50,B
48,4,25/2/95,21,f,77,The rules taught Josh,Non-sensible,edin_semantics,sem_emo_sem_emo,1.76110947900452,2,2,2,1,1646921.36248319,90,B
48,4,25/2/95,21,f,78,The hospital visited Tom,Non-sensible,edin_semantics,sem_emo_sem_emo,1.58465192723088,1,1,2,0,1646923.69120594,91,B
48,4,25/2/95,21,f,79,The blanket stroked Ryan,Non-sensible,edin_semantics,sem_emo_sem_emo,1.27881908975542,2,2,2,1,1646925.71412664,116,B
48,4,25/2/95,21,f,80,The rope pulled Emma,Non-sensible,edin_semantics,sem_emo_sem_emo,1.39630425977521,2,2,2,1,1646927.85467202,120,B
48,4,25/2/95,21,f,81,Bill counted the sheets,Sensible,edin_semantics,sem_emo_sem_emo,1.47839297913015,2,2,2,1,1646930.0775364,48,B
48,4,25/2/95,21,f,82,Mark washed the dishes,Sensible,edin_semantics,sem_emo_sem_emo,1.52585882856511,2,1,1,1,1646932.34752634,57,B
48,4,25/2/95,21,f,83,The shoes counted Lucy,Non-sensible,edin_semantics,sem_emo_sem_emo,1.40852503944188,1,1,1,1,1646934.49975818,123,B
48,4,25/2/95,21,f,84,The carrots grated Tom,Non-sensible,edin_semantics,sem_emo_sem_emo,1.40774728939869,2,2,2,1,1646936.65202433,140,B
48,4,25/2/95,21,f,85,The fat chewed Adam,Non-sensible,edin_semantics,sem_emo_sem_emo,1.67882511927746,2,2,2,1,1646939.07481603,106,B
48,4,25/2/95,21,f,86,The door kicked Max,Non-sensible,edin_semantics,sem_emo_sem_emo,1.6197299011983,2,2,2,1,1646941.43882137,114,B
48,4,25/2/95,21,f,87,The pillow hugged Kate,Non-sensible,edin_semantics,sem_emo_sem_emo,0.502756282454357,2,2,2,1,1646942.68552917,86,B
48,4,25/2/95,21,f,88,Rob stroked the fur,Sensible,edin_semantics,sem_emo_sem_emo,1.01978692528792,2,1,1,1,1646944.44969801,41,B
48,4,25/2/95,21,f,89,Jon polished the coins,Sensible,edin_semantics,sem_emo_sem_emo,1.11402329988778,1,1,1,1,1646946.30796467,29,B
48,4,25/2/95,21,f,90,The gift posted Jack,Non-sensible,edin_semantics,sem_emo_sem_emo,2.51399020152166,2,1,1,1,1646949.56581434,111,B
48,4,25/2/95,21,f,91,The house dusted Alex,Non-sensible,edin_semantics,sem_emo_sem_emo,0.949591849697754,1,2,2,1,1646951.25940805,122,B
48,4,25/2/95,21,f,92,Jen fixed the laptop,Sensible,edin_semantics,sem_emo_sem_emo,1.05563751771115,2,1,1,1,1646953.05888258,37,B
48,4,25/2/95,21,f,93,The bed sold Jay,Non-sensible,edin_semantics,sem_emo_sem_emo,0.984894970199093,2,1,1,1,1646954.78775953,113,B
48,4,25/2/95,21,f,94,The car lent Fred,Non-sensible,edin_semantics,sem_emo_sem_emo,1.12579218251631,2,2,2,1,1646956.65777423,94,B
48,4,25/2/95,21,f,95,The nuts mixed Liam,Non-sensible,edin_semantics,sem_emo_sem_emo,0.961323528550565,2,1,1,1,1646958.36315511,83,B
48,4,25/2/95,21,f,96,Beth took the photo,Sensible,edin_semantics,sem_emo_sem_emo,1.05552141647786,1,1,1,1,1646960.16260686,53,B
48,4,25/2/95,21,f,97,The perfume sniffed Tim,Non-sensible,edin_semantics,sem_emo_sem_emo,2.00776691758074,1,1,1,1,1646962.91474191,93,B
48,4,25/2/95,21,f,98,Jon cut the paper,Sensible,edin_semantics,sem_emo_sem_emo,2.11385139287449,1,2,1,0,1646965.77269395,20,B
48,4,25/2/95,21,f,99,The lemon squeezed Jay,Non-sensible,edin_semantics,sem_emo_sem_emo,0.702507209731266,1,2,2,1,1646967.21932746,76,B
48,4,25/2/95,21,f,100,The garage tidied Erin,Non-sensible,edin_semantics,sem_emo_sem_emo,0.596822674386203,2,1,1,1,1646968.56012345,77,B
48,4,25/2/95,21,f,101,Tom dialed the number,Sensible,edin_semantics,sem_emo_sem_emo,0.902212915709242,2,1,1,1,1646970.20668204,63,B
48,4,25/2/95,21,f,102,John described the pen,Sensible,edin_semantics,sem_emo_sem_emo,1.74951474787667,1,2,2,1,1646972.7000508,42,B
48,4,25/2/95,21,f,103,Sam tidied the room,Sensible,edin_semantics,sem_emo_sem_emo,1.06708664097823,2,2,2,1,1646974.51127337,2,B
48,4,25/2/95,21,f,104,Matt drank the juice,Sensible,edin_semantics,sem_emo_sem_emo,1.95993352076039,2,2,2,1,1646977.21633897,60,B
48,4,25/2/95,21,f,105,The ice crushed Josh,Non-sensible,edin_semantics,sem_emo_sem_emo,1.25548369949684,1,1,1,1,1646979.2157389,81,B
48,4,25/2/95,21,f,106,Jon trimmed the bushes,Sensible,edin_semantics,sem_emo_sem_emo,1.25545098586008,2,2,2,1,1646981.21516642,32,B
48,4,25/2/95,21,f,107,The debt paid Zoe,Non-sensible,edin_semantics,sem_emo_sem_emo,1.36141711520031,2,2,2,1,1646983.32038238,134,B
48,4,25/2/95,21,f,108,The turnip mashed Ella,Non-sensible,edin_semantics,sem_emo_sem_emo,1.243813599227,2,1,1,1,1646985.3080641,103,B
48,4,25/2/95,21,f,109,Carl sold the sofa,Sensible,edin_semantics,sem_emo_sem_emo,1.17328561423346,2,2,2,1,1646987.2251322,38,B
48,4,25/2/95,21,f,110,The button pushed Ian,Non-sensible,edin_semantics,sem_emo_sem_emo,1.24381007114425,1,1,1,1,1646989.21274465,101,B
48,4,25/2/95,21,f,111,The trousers ironed Eve,Non-sensible,edin_semantics,sem_emo_sem_emo,1.86736008850858,2,2,2,1,1646991.82375028,130,B
48,4,25/2/95,21,f,112,Joe wore the jumper,Sensible,edin_semantics,sem_emo_sem_emo,1.38476180634461,2,1,1,1,1646993.95252004,25,B
48,4,25/2/95,21,f,113,Will mashed the potatoes,Sensible,edin_semantics,sem_emo_sem_emo,1.39650855935179,1,2,2,1,1646996.0930311,28,B
48,4,25/2/95,21,f,114,Liz scrubbed the bowl,Sensible,edin_semantics,sem_emo_sem_emo,1.39651561528444,2,2,2,1,1646998.23356462,56,B
48,4,25/2/95,21,f,115,Liz labeled the jar,Sensible,edin_semantics,sem_emo_sem_emo,1.50267064967193,2,1,1,1,1647000.47999883,61,B
48,4,25/2/95,21,f,116,The rope pulled Andy,Non-sensible,edin_semantics,sem_emo_sem_emo,2.51379648526199,2,2,2,1,1647003.73779526,148,B
48,4,25/2/95,21,f,117,Amy measured the thread,Sensible,edin_semantics,sem_emo_sem_emo,1.7021396625787,1,1,1,1,1647006.18412729,51,B
48,4,25/2/95,21,f,118,The hair brushed Dan,Non-sensible,edin_semantics,sem_emo_sem_emo,2.00821015471593,2,1,1,1,1647008.93626554,147,B
48,4,25/2/95,21,f,119,The plants watered Luke,Non-sensible,edin_semantics,sem_emo_sem_emo,1.67848547524773,2,1,1,1,1647011.35906206,129,B
48,4,25/2/95,21,f,120,The stairs climbed Ben,Non-sensible,edin_semantics,sem_emo_sem_emo,1.80799097358249,1,1,1,1,1647013.91127491,143,B
48,4,25/2/95,21,f,121,Sean read the book,Sensible,edin_semantics,sem_emo_sem_emo,1.96120871021412,1,2,2,1,1647016.61629593,4,B
48,4,25/2/95,21,f,122,Ewan wrote the story,Sensible,edin_semantics,sem_emo_sem_emo,1.76064507407136,2,2,2,1,1647019.1214262,74,B
48,4,25/2/95,21,f,123,Erin posted the card,Sensible,edin_semantics,sem_emo_sem_emo,1.83177601569332,2,2,2,1,1647021.69714827,36,B
48,4,25/2/95,21,f,124,Ella watched the movie,Sensible,edin_semantics,sem_emo_sem_emo,1.74880178365856,2,1,1,1,1647024.19052248,33,B
48,4,25/2/95,21,f,125,The carrots chopped Fred,Non-sensible,edin_semantics,sem_emo_sem_emo,1.4436546494253,1,2,2,1,1647026.37813089,102,B
48,4,25/2/95,21,f,126,The radio got Ben,Non-sensible,edin_semantics,sem_emo_sem_emo,1.51395043195225,1,2,2,1,1647028.636215,88,B
48,4,25/2/95,21,f,127,The donut iced Joe,Non-sensible,edin_semantics,sem_emo_sem_emo,1.57301967171952,2,1,1,1,1647030.95319067,119,B
48,4,25/2/95,21,f,128,Jen searched the room,Sensible,edin_semantics,sem_emo_sem_emo,1.1260811528191,1,2,2,1,1647032.82320826,10,B
48,4,25/2/95,21,f,129,Jack mixed the fruits,Sensible,edin_semantics,sem_emo_sem_emo,0.937811099924147,2,2,2,1,1647034.50507574,8,B
48,4,25/2/95,21,f,130,Luke climbed the hill,Sensible,edin_semantics,sem_emo_sem_emo,1.47870504134335,2,2,2,1,1647036.72791927,68,B
48,4,25/2/95,21,f,131,The church described Erin,Non-sensible,edin_semantics,sem_emo_sem_emo,1.466664186446,2,1,1,1,1647038.93902503,117,B
48,4,25/2/95,21,f,132,The dessert served Fred,Non-sensible,edin_semantics,sem_emo_sem_emo,1.92524105426855,2,1,1,1,1647041.60881446,145,B
48,4,25/2/95,21,f,133,Tim ate the ham,Sensible,edin_semantics,sem_emo_sem_emo,1.64347357000224,2,1,1,1,1647043.99633062,67,B
48,4,25/2/95,21,f,134,The office entered Joe,Non-sensible,edin_semantics,sem_emo_sem_emo,2.64301974885166,1,1,1,1,1647047.38355204,133,B
48,4,25/2/95,21,f,135,The radio fixed Luke,Non-sensible,edin_semantics,sem_emo_sem_emo,4.05397104774602,2,2,2,1,1647052.1821927,112,B
48,4,25/2/95,21,f,136,The hair trimmed Bill,Non-sensible,edin_semantics,sem_emo_sem_emo,0.91439552931115,2,1,1,1,1647053.84043711,107,B
48,4,25/2/95,21,f,137,The box labeled Ian,Non-sensible,edin_semantics,sem_emo_sem_emo,1.10212741116993,2,2,2,1,1647055.6869227,136,B
48,4,25/2/95,21,f,138,The plate licked Jane,Non-sensible,edin_semantics,sem_emo_sem_emo,1.20804895996116,2,2,2,1,1647057.63930643,96,B
48,4,25/2/95,21,f,139,The message typed Eve,Non-sensible,edin_semantics,sem_emo_sem_emo,1.50192048144527,1,2,2,1,1647059.88568356,124,B
48,4,25/2/95,21,f,140,The problem solved Phil,Non-sensible,edin_semantics,sem_emo_sem_emo,1.49058970459737,1,1,1,1,1647062.12035659,109,B
48,4,25/2/95,21,f,141,Mary iced the cake,Sensible,edin_semantics,sem_emo_sem_emo,1.52589507028461,1,2,2,1,1647064.39024807,44,B
48,4,25/2/95,21,f,142,Erin crushed the garlic,Sensible,edin_semantics,sem_emo_sem_emo,1.31385793583468,1,2,2,1,1647066.44846644,6,B
48,4,25/2/95,21,f,143,The ticket took Tim,Non-sensible,edin_semantics,sem_emo_sem_emo,1.52548133931123,2,2,2,1,1647068.71832136,128,B
48,4,25/2/95,21,f,144,The invite mailed Ian,Non-sensible,edin_semantics,sem_emo_sem_emo,1.40826557553373,2,1,1,1,1647070.87065615,89,B
48,4,25/2/95,21,f,145,Joe solved the puzzle,Sensible,edin_semantics,sem_emo_sem_emo,1.32558191730641,1,2,2,1,1647072.94059913,34,B
48,4,25/2/95,21,f,146,Liz sliced the tomato,Sensible,edin_semantics,sem_emo_sem_emo,1.56130082160234,1,1,1,1,1647075.24581458,3,B
48,4,25/2/95,21,f,147,Jake dusted the shelf,Sensible,edin_semantics,sem_emo_sem_emo,1.5377133442089,1,1,1,1,1647077.52745891,47,B
48,4,25/2/95,21,f,148,Tom knitted the scarf,Sensible,edin_semantics,sem_emo_sem_emo,1.41970956721343,1,2,2,1,1647079.6915164,66,B
48,4,25/2/95,21,f,149,Kate served the dish,Sensible,edin_semantics,sem_emo_sem_emo,1.49025198468007,1,2,2,1,1647081.92615126,70,B
48,4,25/2/95,21,f,150,The portrait painted Jay,Non-sensible,edin_semantics,sem_emo_sem_emo,1.45541583490558,1,2,2,1,1647084.12553561,110,B
48,4,25/2/95,21,f,151,Adam watched the opera,Sensible,edin_semantics,sem_emo_sem_emo,2.18890219531022,1,1,1,1,1647090.07664222,108,A
48,4,25/2/95,21,f,152,Eve typed the message,Sensible,edin_semantics,sem_emo_sem_emo,1.78167511662468,1,1,1,1,1647092.6053218,124,A
48,4,25/2/95,21,f,153,Leo carried the wallet,Sensible,edin_semantics,sem_emo_sem_emo,1.44237015908584,2,1,1,1,1647094.79289332,150,A
48,4,25/2/95,21,f,154,Joe entered the office,Sensible,edin_semantics,sem_emo_sem_emo,1.21919981227256,2,2,2,1,1647096.75701739,133,A
48,4,25/2/95,21,f,155,Lucy cut the ribbon,Sensible,edin_semantics,sem_emo_sem_emo,2.98322689649649,2,2,2,1,1647100.48529331,95,A
48,4,25/2/95,21,f,156,The dish served Kate,Non-sensible,edin_semantics,sem_emo_sem_emo,1.23136606928892,2,1,1,1,1647102.46118401,70,A
48,4,25/2/95,21,f,157,The bucket lent Max,Non-sensible,edin_semantics,sem_emo_sem_emo,1.29001933312975,1,2,2,1,1647104.49583094,19,A
48,4,25/2/95,21,f,158,The room searched Jen,Non-sensible,edin_semantics,sem_emo_sem_emo,1.18317923718132,2,1,1,1,1647106.42466953,10,A
48,4,25/2/95,21,f,159,The plans cancelled Ian,Non-sensible,edin_semantics,sem_emo_sem_emo,1.20775678264908,1,2,2,1,1647108.37702792,7,A
48,4,25/2/95,21,f,160,Ben got the radio,Sensible,edin_semantics,sem_emo_sem_emo,5.43010062957183,2,1,1,1,1647114.55164902,88,A
48,4,25/2/95,21,f,161,The juice drank Matt,Non-sensible,edin_semantics,sem_emo_sem_emo,1.68972741207108,1,1,1,1,1647116.98624072,60,A
48,4,25/2/95,21,f,162,Ian labeled the box,Sensible,edin_semantics,sem_emo_sem_emo,1.88980772090144,2,1,1,1,1647119.62080304,136,A
48,4,25/2/95,21,f,163,Tom whisked the cream,Sensible,edin_semantics,sem_emo_sem_emo,1.58355345530435,1,2,2,1,1647121.94944143,137,A
48,4,25/2/95,21,f,164,The bill paid Mike,Non-sensible,edin_semantics,sem_emo_sem_emo,1.58396269613877,2,2,2,1,1647124.27816065,59,A
48,4,25/2/95,21,f,165,The jumper wore Joe,Non-sensible,edin_semantics,sem_emo_sem_emo,1.60751296998933,1,2,2,1,1647126.63040063,25,A
48,4,25/2/95,21,f,166,The lever pulled Hugh,Non-sensible,edin_semantics,sem_emo_sem_emo,1.43150539067574,2,2,2,1,1647128.80623278,45,A
48,4,25/2/95,21,f,167,Liz weighed the sugar,Sensible,edin_semantics,sem_emo_sem_emo,1.72502732556313,1,2,2,1,1647131.27609488,139,A
48,4,25/2/95,21,f,168,The ham ate Tim,Non-sensible,edin_semantics,sem_emo_sem_emo,2.36025930987671,2,2,2,1,1647134.38103727,67,A
48,4,25/2/95,21,f,169,The photo took Beth,Non-sensible,edin_semantics,sem_emo_sem_emo,1.68930502189323,2,2,2,1,1647136.81562158,53,A
48,4,25/2/95,21,f,170,Tim sniffed the perfume,Sensible,edin_semantics,sem_emo_sem_emo,1.45444661402144,2,2,2,1,1647139.01496969,93,A
48,4,25/2/95,21,f,171,Josh crushed the ice,Sensible,edin_semantics,sem_emo_sem_emo,1.55968598788604,1,2,2,1,1647141.32014536,81,A
48,4,25/2/95,21,f,172,Alex wrote the report,Sensible,edin_semantics,sem_emo_sem_emo,1.72451256704517,1,2,2,1,1647143.789943,149,A
48,4,25/2/95,21,f,173,Emma pulled the rope,Sensible,edin_semantics,sem_emo_sem_emo,1.58412979217246,1,1,1,1,1647146.11867633,120,A
48,4,25/2/95,21,f,174,The lorry dented Lily,Non-sensible,edin_semantics,sem_emo_sem_emo,1.6545333371032,2,2,2,1,1647148.51798126,71,A
48,4,25/2/95,21,f,175,Fred lent the car,Sensible,edin_semantics,sem_emo_sem_emo,1.60785678378306,2,1,1,1,1647150.87017218,94,A
48,4,25/2/95,21,f,176,The lesson taught Eve,Non-sensible,edin_semantics,sem_emo_sem_emo,1.43121738242917,2,2,2,1,1647153.04602677,15,A
48,4,25/2/95,21,f,177,Bill trimmed the hair,Sensible,edin_semantics,sem_emo_sem_emo,1.90134664624929,1,2,2,1,1647155.69229575,107,A
48,4,25/2/95,21,f,178,The card posted Erin,Non-sensible,edin_semantics,sem_emo_sem_emo,1.33698421530426,1,1,1,1,1647157.77403039,36,A
48,4,25/2/95,21,f,179,Alex dusted the house,Sensible,edin_semantics,sem_emo_sem_emo,1.4781418540515,1,1,1,1,1647159.99686815,122,A
48,4,25/2/95,21,f,180,Liam sliced the onion,Sensible,edin_semantics,sem_emo_sem_emo,1.36046200594865,2,1,1,1,1647162.10212998,78,A
48,4,25/2/95,21,f,181,Lucy counted the shoes,Sensible,edin_semantics,sem_emo_sem_emo,1.38401163835078,1,2,2,1,1647164.2308821,123,A
48,4,25/2/95,21,f,182,The handle pulled Tim,Non-sensible,edin_semantics,sem_emo_sem_emo,1.63114149984904,1,2,2,1,1647166.60665023,73,A
48,4,25/2/95,21,f,183,Zoe paid the debt,Sensible,edin_semantics,sem_emo_sem_emo,1.65442172577605,2,1,1,1,1647169.00593977,134,A
48,4,25/2/95,21,f,184,The movie watched Ella,Non-sensible,edin_semantics,sem_emo_sem_emo,1.34821268217638,1,2,2,1,1647171.09941763,33,A
48,4,25/2/95,21,f,185,The wall punched Jane,Non-sensible,edin_semantics,sem_emo_sem_emo,1.524760998087,2,1,1,1,1647173.36933124,50,A
48,4,25/2/95,21,f,186,Dan brushed the hair,Sensible,edin_semantics,sem_emo_sem_emo,1.43077222071588,1,2,2,1,1647175.54518039,147,A
48,4,25/2/95,21,f,187,Amy lifted the crate,Sensible,edin_semantics,sem_emo_sem_emo,1.572102407692,2,1,1,1,1647177.86209929,144,A
48,4,25/2/95,21,f,188,Phil cancelled the party,Sensible,edin_semantics,sem_emo_sem_emo,1.91337595530786,1,1,1,1,1647180.52016409,82,A
48,4,25/2/95,21,f,189,Ryan stroked the blanket,Sensible,edin_semantics,sem_emo_sem_emo,1.79521726979874,1,1,1,1,1647183.06054488,116,A
48,4,25/2/95,21,f,190,The floor cleaned Tim,Non-sensible,edin_semantics,sem_emo_sem_emo,2.27783832303248,2,2,2,1,1647186.08326288,5,A
48,4,25/2/95,21,f,191,The jar labeled Liz,Non-sensible,edin_semantics,sem_emo_sem_emo,2.70132278464735,2,2,2,1,1647189.52920011,61,A
48,4,25/2/95,21,f,192,The cheese grated Andy,Non-sensible,edin_semantics,sem_emo_sem_emo,2.53630569647066,2,2,2,1,1647192.81057471,65,A
48,4,25/2/95,21,f,193,Liam mixed the nuts,Sensible,edin_semantics,sem_emo_sem_emo,1.38379322667606,2,2,2,1,1647194.93937783,83,A
48,4,25/2/95,21,f,194,Erin punched the monitor,Sensible,edin_semantics,sem_emo_sem_emo,1.88913997844793,2,2,2,1,1647197.5738606,125,A
48,4,25/2/95,21,f,195,The scarf knitted Tom,Non-sensible,edin_semantics,sem_emo_sem_emo,1.86566763999872,2,1,1,1,1647200.18482775,66,A
48,4,25/2/95,21,f,196,The room tidied Sam,Non-sensible,edin_semantics,sem_emo_sem_emo,2.01914933044463,1,1,1,1,1647202.94870217,2,A
48,4,25/2/95,21,f,197,The pill swallowed Luke,Non-sensible,edin_semantics,sem_emo_sem_emo,1.90152753330767,2,1,1,1,1647205.59499167,22,A
48,4,25/2/95,21,f,198,The picture painted Ryan,Non-sensible,edin_semantics,sem_emo_sem_emo,1.47777398629114,1,2,2,1,1647207.81783424,35,A
48,4,25/2/95,21,f,199,Erin described the church,Sensible,edin_semantics,sem_emo_sem_emo,1.73608677182347,1,2,2,1,1647210.2994771,117,A
48,4,25/2/95,21,f,200,Tim took the ticket,Sensible,edin_semantics,sem_emo_sem_emo,1.93676939583384,2,1,1,1,1647212.98101392,128,A
48,4,25/2/95,21,f,201,The hill climbed Luke,Non-sensible,edin_semantics,sem_emo_sem_emo,1.73682603542693,1,1,1,1,1647215.46263592,68,A
48,4,25/2/95,21,f,202,The herbs chopped Phil,Non-sensible,edin_semantics,sem_emo_sem_emo,1.65421357750893,1,2,2,1,1647217.86190942,27,A
48,4,25/2/95,21,f,203,Josh scrubbed the pot,Sensible,edin_semantics,sem_emo_sem_emo,4.98273234372027,1,2,2,1,1647223.58960355,131,A
48,4,25/2/95,21,f,204,The fur stroked Rob,Non-sensible,edin_semantics,sem_emo_sem_emo,1.77175230788998,2,2,2,1,1647226.10646838,41,A
48,4,25/2/95,21,f,205,The ball squeezed Josh,Non-sensible,edin_semantics,sem_emo_sem_emo,2.00767294596881,2,2,2,1,1647228.85860246,1,A
48,4,25/2/95,21,f,206,Phil solved the problem,Sensible,edin_semantics,sem_emo_sem_emo,1.86678695864975,2,2,2,1,1647231.46992593,109,A
48,4,25/2/95,21,f,207,The story wrote Ewan,Non-sensible,edin_semantics,sem_emo_sem_emo,1.84286111965775,1,1,1,1,1647234.05705896,74,A
48,4,25/2/95,21,f,208,The pen described John,Non-sensible,edin_semantics,sem_emo_sem_emo,1.96070132846944,1,1,1,1,1647236.76210756,42,A
48,4,25/2/95,21,f,209,Fred stored the rice,Sensible,edin_semantics,sem_emo_sem_emo,1.3954072012566,1,2,2,1,1647238.90263723,127,A
48,4,25/2/95,21,f,210,The eggs whisked Dan,Non-sensible,edin_semantics,sem_emo_sem_emo,1.69006000063382,1,1,1,1,1647241.33720776,62,A
48,4,25/2/95,21,f,211,Max kicked the door,Sensible,edin_semantics,sem_emo_sem_emo,1.66678105737083,2,1,1,1,1647243.74826008,114,A
48,4,25/2/95,21,f,212,The laptop fixed Jen,Non-sensible,edin_semantics,sem_emo_sem_emo,1.51305561838672,2,2,2,1,1647246.0063923,37,A
48,4,25/2/95,21,f,213,The bike kicked Matt,Non-sensible,edin_semantics,sem_emo_sem_emo,1.67803357844241,1,2,2,1,1647248.4292087,39,A
48,4,25/2/95,21,f,214,The fruits mixed Jack,Non-sensible,edin_semantics,sem_emo_sem_emo,1.65399452461861,2,1,1,1,1647250.82848509,8,A
48,4,25/2/95,21,f,215,Lucy wiped the desk,Sensible,edin_semantics,sem_emo_sem_emo,1.57187886466272,1,2,2,1,1647253.14545178,115,A
48,4,25/2/95,21,f,216,Fred chopped the carrots,Sensible,edin_semantics,sem_emo_sem_emo,2.11312463739887,2,1,1,1,1647256.00342178,102,A
48,4,25/2/95,21,f,217,The towels passed Phil,Non-sensible,edin_semantics,sem_emo_sem_emo,1.16071781353094,2,2,2,1,1647257.90872677,43,A
48,4,25/2/95,21,f,218,The bowl scrubbed Liz,Non-sensible,edin_semantics,sem_emo_sem_emo,2.36033820733428,1,1,1,1,1647261.01370059,56,A
48,4,25/2/95,21,f,219,Hugh kissed the rose,Sensible,edin_semantics,sem_emo_sem_emo,2.05388637748547,1,1,1,1,1647263.81284125,98,A
48,4,25/2/95,21,f,220,The puzzle solved Joe,Non-sensible,edin_semantics,sem_emo_sem_emo,1.94838946405798,1,1,1,1,1647266.50613348,34,A
48,4,25/2/95,21,f,221,Rose built the shed,Sensible,edin_semantics,sem_emo_sem_emo,2.25439805677161,1,2,2,1,1647269.50526882,121,A
48,4,25/2/95,21,f,222,The paper cut Jon,Non-sensible,edin_semantics,sem_emo_sem_emo,1.51330353622325,1,1,1,1,1647271.76338821,20,A
48,4,25/2/95,21,f,223,Adam chewed the fat,Sensible,edin_semantics,sem_emo_sem_emo,1.9840190790128,1,1,1,1,1647274.49197907,106,A
48,4,25/2/95,21,f,224,Joe iced the donut,Sensible,edin_semantics,sem_emo_sem_emo,1.58405185677111,1,2,2,1,1647276.82070278,119,A
48,4,25/2/95,21,f,225,Hugh dialed the hotline,Sensible,edin_semantics,sem_emo_sem_emo,1.96023115050048,1,1,1,1,1647279.52577448,138,A
48,4,25/2/95,21,f,226,The museum visited Mary,Non-sensible,edin_semantics,sem_emo_sem_emo,2.66594846383668,1,1,1,1,1647282.93653527,16,A
48,4,25/2/95,21,f,227,Jack posted the gift,Sensible,edin_semantics,sem_emo_sem_emo,1.34890063013881,1,2,2,1,1647285.03000576,111,A
48,4,25/2/95,21,f,228,The wine stored Leo,Non-sensible,edin_semantics,sem_emo_sem_emo,1.83089467231184,2,1,1,1,1647287.60572591,52,A
48,4,25/2/95,21,f,229,The room entered Ryan,Non-sensible,edin_semantics,sem_emo_sem_emo,1.97125146910548,1,1,1,1,1647290.32253731,58,A
48,4,25/2/95,21,f,230,Jane licked the plate,Sensible,edin_semantics,sem_emo_sem_emo,2.0541750267148,1,1,1,1,1647293.12171485,96,A
48,4,25/2/95,21,f,231,Leo passed the salt,Sensible,edin_semantics,sem_emo_sem_emo,4.30078339483589,2,1,1,1,1647298.16726823,118,A
48,4,25/2/95,21,f,232,The sofa sold Carl,Non-sensible,edin_semantics,sem_emo_sem_emo,2.21925273118541,2,1,1,1,1647301.13110237,38,A
48,4,25/2/95,21,f,233,Luke watered the plants,Sensible,edin_semantics,sem_emo_sem_emo,1.10236795223318,1,2,2,1,1647302.97763511,129,A
48,4,25/2/95,21,f,234,The book read Sean,Non-sensible,edin_semantics,sem_emo_sem_emo,3.32439845451154,2,1,1,1,1647307.04694885,4,A
48,4,25/2/95,21,f,235,Tom grated the carrots,Sensible,edin_semantics,sem_emo_sem_emo,1.83058068575338,2,1,1,1,1647309.6226459,140,A
48,4,25/2/95,21,f,236,The gun carried Ryan,Non-sensible,edin_semantics,sem_emo_sem_emo,1.84244674723595,2,2,2,1,1647312.21012499,75,A
48,4,25/2/95,21,f,237,Jay squeezed the lemon,Sensible,edin_semantics,sem_emo_sem_emo,2.00748243718408,2,1,1,1,1647314.96223406,76,A
48,4,25/2/95,21,f,238,Ryan knitted the socks,Sensible,edin_semantics,sem_emo_sem_emo,1.60754568362609,2,2,2,1,1647317.31456192,141,A
48,4,25/2/95,21,f,239,Tom visited the hospital,Sensible,edin_semantics,sem_emo_sem_emo,1.80693195061758,1,2,2,1,1647319.86663814,91,A
48,4,25/2/95,21,f,240,The fence jumped Jon,Non-sensible,edin_semantics,sem_emo_sem_emo,1.57224705326371,2,2,2,1,1647322.18359778,17,A
48,4,25/2/95,21,f,241,Rob measured the curtains,Sensible,edin_semantics,sem_emo_sem_emo,2.40755774267018,2,1,1,1,1647325.33558908,126,A
48,4,25/2/95,21,f,242,Ian dented the bowl,Sensible,edin_semantics,sem_emo_sem_emo,1.7958073974587,1,1,2,0,1647327.8760138,146,A
48,4,25/2/95,21,f,243,The shelf dusted Jake,Non-sensible,edin_semantics,sem_emo_sem_emo,1.24292327556759,1,2,2,1,1647329.86364998,47,A
48,4,25/2/95,21,f,244,Jay painted the portrait,Sensible,edin_semantics,sem_emo_sem_emo,1.28984518139623,1,1,1,1,1647331.89835495,110,A
48,4,25/2/95,21,f,245,The dishes washed Mark,Non-sensible,edin_semantics,sem_emo_sem_emo,1.27811286062934,1,2,2,1,1647333.92129233,57,A
48,4,25/2/95,21,f,246,Mike ate the steak,Sensible,edin_semantics,sem_emo_sem_emo,1.3837284410838,1,1,1,1,1647336.05003804,142,A
48,4,25/2/95,21,f,247,The bushes trimmed Jon,Non-sensible,edin_semantics,sem_emo_sem_emo,2.39546076161787,2,1,1,1,1647339.19027424,32,A
48,4,25/2/95,21,f,248,The sheets counted Bill,Non-sensible,edin_semantics,sem_emo_sem_emo,1.36050754855387,1,1,1,1,1647341.29559508,48,A
48,4,25/2/95,21,f,249,The teeth brushed Carl,Non-sensible,edin_semantics,sem_emo_sem_emo,1.73723495565355,2,1,1,1,1647343.77711862,72,A
48,4,25/2/95,21,f,250,The shirt ironed Josh,Non-sensible,edin_semantics,sem_emo_sem_emo,1.83066375274211,1,2,2,1,1647346.35284487,55,A
48,4,25/2/95,21,f,251,The kettle got Lily,Non-sensible,edin_semantics,sem_emo_sem_emo,1.63149365223944,2,2,2,1,1647348.72858028,13,A
48,4,25/2/95,21,f,252,The garlic crushed Erin,Non-sensible,edin_semantics,sem_emo_sem_emo,1.39597872714512,1,1,1,1,1647350.86914683,6,A
48,4,25/2/95,21,f,253,The parcel mailed Rob,Non-sensible,edin_semantics,sem_emo_sem_emo,1.47806648444384,1,1,1,1,1647353.0920189,14,A
48,4,25/2/95,21,f,254,The coins polished Jon,Non-sensible,edin_semantics,sem_emo_sem_emo,1.30162785504945,2,2,2,1,1647355.13846069,29,A
48,4,25/2/95,21,f,255,The thread measured Amy,Non-sensible,edin_semantics,sem_emo_sem_emo,1.32479903590865,1,2,2,1,1647357.20842613,51,A
48,4,25/2/95,21,f,256,The spoon licked Will,Non-sensible,edin_semantics,sem_emo_sem_emo,1.40743105765432,1,2,2,1,1647359.36071858,21,A
48,4,25/2/95,21,f,257,The potatoes mashed Will,Non-sensible,edin_semantics,sem_emo_sem_emo,1.46622768417001,2,1,1,1,1647361.57180285,28,A
48,4,25/2/95,21,f,258,The table wiped Beth,Non-sensible,edin_semantics,sem_emo_sem_emo,1.46607277565636,2,1,1,1,1647363.78289129,40,A
48,4,25/2/95,21,f,259,John carried the kettle,Sensible,edin_semantics,sem_emo_sem_emo,1.2897252314724,2,2,2,1,1647365.81758055,105,A
48,4,25/2/95,21,f,260,The lolly sucked Leah,Non-sensible,edin_semantics,sem_emo_sem_emo,1.3604456493631,1,1,1,1,1647367.92283436,12,A
48,4,25/2/95,21,f,261,Max searched the internet,Sensible,edin_semantics,sem_emo_sem_emo,1.59547403943725,2,2,2,1,1647370.26332759,85,A
48,4,25/2/95,21,f,262,The garden watered Jeff,Non-sensible,edin_semantics,sem_emo_sem_emo,1.30172792030498,2,1,1,1,1647372.30977066,54,A
48,4,25/2/95,21,f,263,The flour weighed Jen,Non-sensible,edin_semantics,sem_emo_sem_emo,1.43130109086633,1,1,1,1,1647374.48557458,64,A
48,4,25/2/95,21,f,264,Ian mailed the invite,Sensible,edin_semantics,sem_emo_sem_emo,1.18410516087897,1,2,2,1,1647376.41446994,89,A
48,4,25/2/95,21,f,265,Erin tidied the garage,Sensible,edin_semantics,sem_emo_sem_emo,1.36015475471504,2,2,2,1,1647378.51966665,77,A
48,4,25/2/95,21,f,266,Kate hugged the pillow,Sensible,edin_semantics,sem_emo_sem_emo,1.07813101354986,1,1,1,1,1647380.34269082,86,A
48,4,25/2/95,21,f,267,The number dialed Tom,Non-sensible,edin_semantics,sem_emo_sem_emo,1.15998400235549,2,2,2,1,1647382.24797849,63,A
48,4,25/2/95,21,f,268,Jack cleaned the bath,Sensible,edin_semantics,sem_emo_sem_emo,1.30175133305602,1,1,1,1,1647384.29438147,80,A
48,4,25/2/95,21,f,269,Tom offered the sweets,Sensible,edin_semantics,sem_emo_sem_emo,1.26621440635063,2,1,1,1,1647386.30558235,84,A
48,4,25/2/95,21,f,270,The trolley pushed Matt,Non-sensible,edin_semantics,sem_emo_sem_emo,1.34887689677998,1,1,1,1,1647388.39905733,26,A
48,4,25/2/95,21,f,271,The toffee chewed Ben,Non-sensible,edin_semantics,sem_emo_sem_emo,1.11299346247688,2,2,2,1,1647390.25732208,31,A
48,4,25/2/95,21,f,272,Josh taught the rules,Sensible,edin_semantics,sem_emo_sem_emo,1.11368365562521,2,1,1,1,1647392.1156144,90,A
48,4,25/2/95,21,f,273,The box lifted Kate,Non-sensible,edin_semantics,sem_emo_sem_emo,1.0900532011874,1,2,2,1,1647393.95039494,69,A
48,4,25/2/95,21,f,274,Ian filed the report,Sensible,edin_semantics,sem_emo_sem_emo,1.19559277081862,1,2,2,1,1647395.8909915,99,A
48,4,25/2/95,21,f,275,Luke read the poster,Sensible,edin_semantics,sem_emo_sem_emo,1.26580388261937,2,2,2,1,1647397.90215166,79,A
48,4,25/2/95,21,f,276,The cake iced Mary,Non-sensible,edin_semantics,sem_emo_sem_emo,1.36042287782766,1,1,1,1,1647400.00738013,44,A
48,4,25/2/95,21,f,277,The letter typed Phil,Non-sensible,edin_semantics,sem_emo_sem_emo,1.45456945034675,1,2,2,1,1647402.20671123,49,A
48,4,25/2/95,21,f,278,Jack drank the beer,Sensible,edin_semantics,sem_emo_sem_emo,1.29000874934718,2,2,2,1,1647404.24142775,135,A
48,4,25/2/95,21,f,279,Sara jumped the hedge,Sensible,edin_semantics,sem_emo_sem_emo,1.34891249705106,1,1,1,1,1647406.33486296,92,A
48,4,25/2/95,21,f,280,Sam sucked the candy,Sensible,edin_semantics,sem_emo_sem_emo,1.31375370104797,1,2,2,1,1647408.39306529,87,A
48,4,25/2/95,21,f,281,Andy pulled the rope,Sensible,edin_semantics,sem_emo_sem_emo,1.22003785800189,2,1,1,1,1647410.35718199,148,A
48,4,25/2/95,21,f,282,Owen swallowed the gum,Sensible,edin_semantics,sem_emo_sem_emo,1.21916453260928,2,2,2,1,1647412.32140965,97,A
48,4,25/2/95,21,f,283,The folder carried Dan,Non-sensible,edin_semantics,sem_emo_sem_emo,1.25448016123846,2,1,1,1,1647414.32071208,30,A
48,4,25/2/95,21,f,284,Anna polished the trophy,Sensible,edin_semantics,sem_emo_sem_emo,1.56010164320469,1,1,1,1,1647416.62590572,104,A
48,4,25/2/95,21,f,285,Kate wore the dress,Sensible,edin_semantics,sem_emo_sem_emo,1.56026713550091,2,1,1,1,1647418.93110353,100,A
48,4,25/2/95,21,f,286,The milk sniffed Phil,Non-sensible,edin_semantics,sem_emo_sem_emo,1.52486651553772,1,1,1,1,1647421.20103478,18,A
48,4,25/2/95,21,f,287,Ian pushed the button,Sensible,edin_semantics,sem_emo_sem_emo,1.29002574761398,1,2,2,1,1647423.23569838,101,A
48,4,25/2/95,21,f,288,Fred served the dessert,Sensible,edin_semantics,sem_emo_sem_emo,1.37232261546887,2,2,2,1,1647425.35269413,145,A
48,4,25/2/95,21,f,289,Eve ironed the trousers,Sensible,edin_semantics,sem_emo_sem_emo,1.07817238662392,2,1,1,1,1647427.17568686,130,A
48,4,25/2/95,21,f,290,The house built Kate,Non-sensible,edin_semantics,sem_emo_sem_emo,1.2196866676677,1,1,1,1,1647429.13979842,46,A
48,4,25/2/95,21,f,291,The tomato sliced Liz,Non-sensible,edin_semantics,sem_emo_sem_emo,1.242826417787,2,2,2,1,1647431.12743941,3,A
48,4,25/2/95,21,f,292,The mirror kissed Max,Non-sensible,edin_semantics,sem_emo_sem_emo,1.85360593814403,1,2,2,1,1647433.72670246,23,A
48,4,25/2/95,21,f,293,Beth washed the pan,Sensible,edin_semantics,sem_emo_sem_emo,2.20708679500967,1,1,1,1,1647436.67874654,132,A
48,4,25/2/95,21,f,294,Ben climbed the stairs,Sensible,edin_semantics,sem_emo_sem_emo,2.37142138718627,2,2,2,1,1647439.79546615,143,A
48,4,25/2/95,21,f,295,The papers filed Lara,Non-sensible,edin_semantics,sem_emo_sem_emo,1.26646873843856,2,1,1,1,1647441.80660065,24,A
48,4,25/2/95,21,f,296,Jay sold the bed,Sensible,edin_semantics,sem_emo_sem_emo,1.03108563018031,2,2,2,1,1647443.58251817,113,A
48,4,25/2/95,21,f,297,Luke fixed the radio,Sensible,edin_semantics,sem_emo_sem_emo,2.12419915804639,2,1,1,1,1647446.45230034,112,A
48,4,25/2/95,21,f,298,The tree hugged Amy,Non-sensible,edin_semantics,sem_emo_sem_emo,1.36028496781364,2,2,2,1,1647448.55751149,11,A
48,4,25/2/95,21,f,299,Ella mashed the turnip,Sensible,edin_semantics,sem_emo_sem_emo,2.31291886256076,2,2,2,1,1647451.61544185,103,A
48,4,25/2/95,21,f,300,The money offered Matt,Non-sensible,edin_semantics,sem_emo_sem_emo,2.17164993355982,2,2,2,1,1647454.53223574,9,A
