subject_column,AssignedList_column,subject_dob_column,subject_age_column,subject_gender_column,trialnum_column,Stim_column,Type_column,Experiment_column,OrderGroup_column,ReactionTime_column,StimSide_column,StimPosition_column,Response_column,Valid_column,TrialEndSecs_column,PairID_column,List_column
49,1,9/12/91,24,f,1,Hugh dialed the hotline,Sensible,edin_semantics,emo_sem_emo_sem,1.24880242510699,1,2,2,1,1651911.37120426,138,A
49,1,9/12/91,24,f,2,The bike kicked Matt,Non-sensible,edin_semantics,emo_sem_emo_sem,2.09947183541954,2,1,1,1,1651914.2173887,39,A
49,1,9/12/91,24,f,3,The wall punched Jane,Non-sensible,edin_semantics,emo_sem_emo_sem,1.14651786047034,1,2,2,1,1651916.11099601,50,A
49,1,9/12/91,24,f,4,Phil cancelled the party,Sensible,edin_semantics,emo_sem_emo_sem,1.08748903125525,2,2,2,1,1651917.9457217,82,A
49,1,9/12/91,24,f,5,Zoe paid the debt,Sensible,edin_semantics,emo_sem_emo_sem,1.10226435936056,2,2,2,1,1651919.79222975,134,A
49,1,9/12/91,24,f,6,Jane licked the plate,Sensible,edin_semantics,emo_sem_emo_sem,1.07839785399847,2,2,2,1,1651921.61518944,96,A
49,1,9/12/91,24,f,7,Bill trimmed the hair,Sensible,edin_semantics,emo_sem_emo_sem,1.98363357153721,1,1,1,1,1651924.34379634,107,A
49,1,9/12/91,24,f,8,The towels passed Phil,Non-sensible,edin_semantics,emo_sem_emo_sem,1.77231132565066,2,1,1,1,1651926.86084751,43,A
49,1,9/12/91,24,f,9,The tree hugged Amy,Non-sensible,edin_semantics,emo_sem_emo_sem,1.12548845913261,1,1,1,1,1651928.73077049,11,A
49,1,9/12/91,24,f,10,Mike ate the steak,Sensible,edin_semantics,emo_sem_emo_sem,1.26677246205509,2,2,2,1,1651930.74189312,142,A
49,1,9/12/91,24,f,11,The photo took Beth,Non-sensible,edin_semantics,emo_sem_emo_sem,0.937669661827385,2,1,1,1,1651932.42372404,53,A
49,1,9/12/91,24,f,12,The cheese grated Andy,Non-sensible,edin_semantics,emo_sem_emo_sem,1.67827251600102,1,1,1,1,1651934.84655263,65,A
49,1,9/12/91,24,f,13,Leo passed the salt,Sensible,edin_semantics,emo_sem_emo_sem,1.7134637045674,2,2,2,1,1651937.30462628,118,A
49,1,9/12/91,24,f,14,The fence jumped Jon,Non-sensible,edin_semantics,emo_sem_emo_sem,1.37260100152344,1,1,1,1,1651939.42161145,17,A
49,1,9/12/91,24,f,15,The parcel mailed Rob,Non-sensible,edin_semantics,emo_sem_emo_sem,0.819930801168084,1,2,2,1,1651940.98585746,14,A
49,1,9/12/91,24,f,16,The pen described John,Non-sensible,edin_semantics,emo_sem_emo_sem,0.772629481740296,2,2,2,1,1651942.50312672,42,A
49,1,9/12/91,24,f,17,Luke fixed the radio,Sensible,edin_semantics,emo_sem_emo_sem,0.889824077719823,1,2,2,1,1651944.13790841,112,A
49,1,9/12/91,24,f,18,Ben climbed the stairs,Sensible,edin_semantics,emo_sem_emo_sem,1.09042523847893,1,1,1,1,1651945.97264597,143,A
49,1,9/12/91,24,f,19,The bill paid Mike,Non-sensible,edin_semantics,emo_sem_emo_sem,1.71358750318177,1,1,1,1,1651948.43071128,59,A
49,1,9/12/91,24,f,20,Luke watered the plants,Sensible,edin_semantics,emo_sem_emo_sem,1.18414781684987,1,1,1,1,1651950.35954827,129,A
49,1,9/12/91,24,f,21,The fur stroked Rob,Non-sensible,edin_semantics,emo_sem_emo_sem,1.64289530878887,2,1,1,1,1651952.74704327,41,A
49,1,9/12/91,24,f,22,Kate wore the dress,Sensible,edin_semantics,emo_sem_emo_sem,2.01579810958356,1,2,2,1,1651955.49919595,100,A
49,1,9/12/91,24,f,23,Jay sold the bed,Sensible,edin_semantics,emo_sem_emo_sem,1.4322016777005,1,1,1,1,1651957.67503451,113,A
49,1,9/12/91,24,f,24,Amy lifted the crate,Sensible,edin_semantics,emo_sem_emo_sem,0.780775492312387,1,2,2,1,1651959.19225374,144,A
49,1,9/12/91,24,f,25,Joe iced the donut,Sensible,edin_semantics,emo_sem_emo_sem,0.982969677774236,1,1,1,1,1651960.92112203,119,A
49,1,9/12/91,24,f,26,Eve ironed the trousers,Sensible,edin_semantics,emo_sem_emo_sem,1.33778922678903,1,2,2,1,1651963.00285186,130,A
49,1,9/12/91,24,f,27,The mirror kissed Max,Non-sensible,edin_semantics,emo_sem_emo_sem,4.94785834872164,2,1,1,1,1651968.69525088,23,A
49,1,9/12/91,24,f,28,Anna polished the trophy,Sensible,edin_semantics,emo_sem_emo_sem,1.14862852985971,2,2,2,1,1651970.58883286,104,A
49,1,9/12/91,24,f,29,The trolley pushed Matt,Non-sensible,edin_semantics,emo_sem_emo_sem,0.949664653511718,1,2,2,1,1651972.28239353,26,A
49,1,9/12/91,24,f,30,Adam watched the opera,Sensible,edin_semantics,emo_sem_emo_sem,0.914790337672457,1,2,2,1,1651973.94073416,108,A
49,1,9/12/91,24,f,31,The papers filed Lara,Non-sensible,edin_semantics,emo_sem_emo_sem,1.54943411867134,2,2,2,1,1651976.23420093,24,A
49,1,9/12/91,24,f,32,Max kicked the door,Sensible,edin_semantics,emo_sem_emo_sem,0.866826086770743,1,2,2,1,1651977.84546987,114,A
49,1,9/12/91,24,f,33,The paper cut Jon,Non-sensible,edin_semantics,emo_sem_emo_sem,1.11373112234287,1,2,2,1,1651979.70372242,20,A
49,1,9/12/91,24,f,34,Jay painted the portrait,Sensible,edin_semantics,emo_sem_emo_sem,2.81970822019503,2,2,2,1,1651983.26742032,110,A
49,1,9/12/91,24,f,35,The room entered Ryan,Non-sensible,edin_semantics,emo_sem_emo_sem,1.01978788757697,2,2,2,1,1651985.03155773,58,A
49,1,9/12/91,24,f,36,The milk sniffed Phil,Non-sensible,edin_semantics,emo_sem_emo_sem,1.21994581096806,2,2,2,1,1651986.99570393,18,A
49,1,9/12/91,24,f,37,Owen swallowed the gum,Sensible,edin_semantics,emo_sem_emo_sem,2.3481988911517,1,1,1,1,1651990.08890919,97,A
49,1,9/12/91,24,f,38,Leo carried the wallet,Sensible,edin_semantics,emo_sem_emo_sem,0.90159424347803,2,2,2,1,1651991.73542705,150,A
49,1,9/12/91,24,f,39,The garlic crushed Erin,Non-sensible,edin_semantics,emo_sem_emo_sem,1.03179153846577,2,2,2,1,1651993.5113869,6,A
49,1,9/12/91,24,f,40,Fred served the dessert,Sensible,edin_semantics,emo_sem_emo_sem,1.29050939599983,1,1,1,1,1651995.5460473,145,A
49,1,9/12/91,24,f,41,The sheets counted Bill,Non-sensible,edin_semantics,emo_sem_emo_sem,0.948890431318432,1,2,2,1,1651997.23965352,48,A
49,1,9/12/91,24,f,42,Lucy wiped the desk,Sensible,edin_semantics,emo_sem_emo_sem,2.26644115638919,1,1,1,1,1652000.2505247,115,A
49,1,9/12/91,24,f,43,The flour weighed Jen,Non-sensible,edin_semantics,emo_sem_emo_sem,1.33737966511399,2,2,2,1,1652002.33224844,64,A
49,1,9/12/91,24,f,44,Tom offered the sweets,Sensible,edin_semantics,emo_sem_emo_sem,1.33726901607588,2,2,2,1,1652004.41402317,84,A
49,1,9/12/91,24,f,45,Emma pulled the rope,Sensible,edin_semantics,emo_sem_emo_sem,1.49015320232138,2,2,2,1,1652006.64863013,120,A
49,1,9/12/91,24,f,46,The story wrote Ewan,Non-sensible,edin_semantics,emo_sem_emo_sem,0.972598500084132,2,2,2,1,1652008.36577797,74,A
49,1,9/12/91,24,f,47,Joe entered the office,Sensible,edin_semantics,emo_sem_emo_sem,1.89037315337919,1,1,1,1,1652011.0002646,133,A
49,1,9/12/91,24,f,48,The dish served Kate,Non-sensible,edin_semantics,emo_sem_emo_sem,1.44283809210174,1,2,2,1,1652013.1878374,70,A
49,1,9/12/91,24,f,49,Josh taught the rules,Sensible,edin_semantics,emo_sem_emo_sem,0.937876206589863,2,2,2,1,1652014.86966736,90,A
49,1,9/12/91,24,f,50,Adam chewed the fat,Sensible,edin_semantics,emo_sem_emo_sem,1.38501774240285,2,2,2,1,1652016.99849357,106,A
49,1,9/12/91,24,f,51,Tom visited the hospital,Sensible,edin_semantics,emo_sem_emo_sem,1.21934477845207,1,1,1,1,1652018.96261058,91,A
49,1,9/12/91,24,f,52,Alex dusted the house,Sensible,edin_semantics,emo_sem_emo_sem,1.05495983269066,2,2,2,1,1652020.76202161,122,A
49,1,9/12/91,24,f,53,The card posted Erin,Non-sensible,edin_semantics,emo_sem_emo_sem,1.47888175910339,2,2,2,1,1652022.98489048,36,A
49,1,9/12/91,24,f,54,The herbs chopped Phil,Non-sensible,edin_semantics,emo_sem_emo_sem,1.01993926824071,1,1,1,1,1652024.74902693,27,A
49,1,9/12/91,24,f,55,The floor cleaned Tim,Non-sensible,edin_semantics,emo_sem_emo_sem,1.44314855057746,2,1,1,1,1652026.93669371,5,A
49,1,9/12/91,24,f,56,Jack posted the gift,Sensible,edin_semantics,emo_sem_emo_sem,1.41969802137464,2,1,1,1,1652029.10076819,111,A
49,1,9/12/91,24,f,57,Lucy cut the ribbon,Sensible,edin_semantics,emo_sem_emo_sem,1.27889991179109,2,1,1,1,1652031.12361224,95,A
49,1,9/12/91,24,f,58,The bowl scrubbed Liz,Non-sensible,edin_semantics,emo_sem_emo_sem,0.937477549305186,1,2,2,1,1652032.80553072,56,A
49,1,9/12/91,24,f,59,The letter typed Phil,Non-sensible,edin_semantics,emo_sem_emo_sem,1.10229899734259,2,1,1,1,1652034.65205384,49,A
49,1,9/12/91,24,f,60,The table wiped Beth,Non-sensible,edin_semantics,emo_sem_emo_sem,0.901903098449111,2,2,2,1,1652036.29853385,40,A
49,1,9/12/91,24,f,61,Phil solved the problem,Sensible,edin_semantics,emo_sem_emo_sem,1.6902408876922,2,1,1,1,1652038.73319322,109,A
49,1,9/12/91,24,f,62,The room searched Jen,Non-sensible,edin_semantics,emo_sem_emo_sem,1.20850598835386,1,2,2,1,1652040.68552243,10,A
49,1,9/12/91,24,f,63,Ryan stroked the blanket,Sensible,edin_semantics,emo_sem_emo_sem,1.03160487860441,2,2,2,1,1652042.4615227,116,A
49,1,9/12/91,24,f,64,The lorry dented Lily,Non-sensible,edin_semantics,emo_sem_emo_sem,1.12625562562607,2,1,1,1,1652044.33154317,71,A
49,1,9/12/91,24,f,65,The kettle got Lily,Non-sensible,edin_semantics,emo_sem_emo_sem,1.21988615673035,1,1,1,1,1652046.29561721,13,A
49,1,9/12/91,24,f,66,Erin described the church,Sensible,edin_semantics,emo_sem_emo_sem,1.28989938320592,2,1,1,1,1652048.33027568,117,A
49,1,9/12/91,24,f,67,The gun carried Ryan,Non-sensible,edin_semantics,emo_sem_emo_sem,1.25502089806832,1,1,1,1,1652050.32968106,75,A
49,1,9/12/91,24,f,68,The picture painted Ryan,Non-sensible,edin_semantics,emo_sem_emo_sem,1.1602502015885,1,1,1,1,1652052.23500594,35,A
49,1,9/12/91,24,f,69,Sam sucked the candy,Sensible,edin_semantics,emo_sem_emo_sem,1.31406929134391,1,1,1,1,1652054.29320699,87,A
49,1,9/12/91,24,f,70,Fred chopped the carrots,Sensible,edin_semantics,emo_sem_emo_sem,1.10173356486484,1,2,2,1,1652056.13974197,102,A
49,1,9/12/91,24,f,71,The movie watched Ella,Non-sensible,edin_semantics,emo_sem_emo_sem,0.914110728539526,2,1,1,1,1652057.7979867,33,A
49,1,9/12/91,24,f,72,The museum visited Mary,Non-sensible,edin_semantics,emo_sem_emo_sem,0.925548947416246,2,2,2,1,1652059.46812988,16,A
49,1,9/12/91,24,f,73,The thread measured Amy,Non-sensible,edin_semantics,emo_sem_emo_sem,1.32573201530613,1,1,1,1,1652061.53812066,51,A
49,1,9/12/91,24,f,74,Kate hugged the pillow,Sensible,edin_semantics,emo_sem_emo_sem,1.1378109077923,1,2,2,1,1652063.41986127,86,A
49,1,9/12/91,24,f,75,Ian mailed the invite,Sensible,edin_semantics,emo_sem_emo_sem,3.87857091543265,2,1,2,0,1652068.04199177,89,A
49,1,9/12/91,24,f,76,The house built Kate,Non-sensible,edin_semantics,emo_sem_emo_sem,1.29037693794817,1,2,2,1,1652070.07670893,46,A
49,1,9/12/91,24,f,77,The book read Sean,Non-sensible,edin_semantics,emo_sem_emo_sem,1.00780219701119,1,2,2,1,1652071.82910761,4,A
49,1,9/12/91,24,f,78,The coins polished Jon,Non-sensible,edin_semantics,emo_sem_emo_sem,1.27931556710973,1,1,1,1,1652073.85204948,29,A
49,1,9/12/91,24,f,79,Ian dented the bowl,Sensible,edin_semantics,emo_sem_emo_sem,1.05479594389908,2,2,2,1,1652075.6515147,146,A
49,1,9/12/91,24,f,80,Beth washed the pan,Sensible,edin_semantics,emo_sem_emo_sem,1.64290011976846,2,2,2,1,1652078.03906198,132,A
49,1,9/12/91,24,f,81,The garden watered Jeff,Non-sensible,edin_semantics,emo_sem_emo_sem,1.12598846410401,2,2,2,1,1652079.90908791,54,A
49,1,9/12/91,24,f,82,Rob measured the curtains,Sensible,edin_semantics,emo_sem_emo_sem,0.92590494826436,2,2,2,1,1652081.57916245,126,A
49,1,9/12/91,24,f,83,Luke read the poster,Sensible,edin_semantics,emo_sem_emo_sem,2.37256604293361,1,1,1,1,1652084.69587052,79,A
49,1,9/12/91,24,f,84,The bushes trimmed Jon,Non-sensible,edin_semantics,emo_sem_emo_sem,1.68997597158886,2,2,2,1,1652087.13048498,32,A
49,1,9/12/91,24,f,85,Tom grated the carrots,Sensible,edin_semantics,emo_sem_emo_sem,1.00442371447571,2,2,2,1,1652088.87123409,140,A
49,1,9/12/91,24,f,86,The plans cancelled Ian,Non-sensible,edin_semantics,emo_sem_emo_sem,1.41794784297235,2,1,2,0,1652091.03515976,7,A
49,1,9/12/91,24,f,87,Sara jumped the hedge,Sensible,edin_semantics,emo_sem_emo_sem,1.53342080488801,2,2,2,1,1652093.30502622,92,A
49,1,9/12/91,24,f,88,The toffee chewed Ben,Non-sensible,edin_semantics,emo_sem_emo_sem,1.56078766682185,1,1,1,1,1652095.6103334,31,A
49,1,9/12/91,24,f,89,The puzzle solved Joe,Non-sensible,edin_semantics,emo_sem_emo_sem,1.74872833839618,1,2,2,1,1652098.1036611,34,A
49,1,9/12/91,24,f,90,Ian filed the report,Sensible,edin_semantics,emo_sem_emo_sem,1.2547870920971,1,1,1,1,1652100.10301292,99,A
49,1,9/12/91,24,f,91,Josh scrubbed the pot,Sensible,edin_semantics,emo_sem_emo_sem,1.56067637656815,2,1,1,1,1652102.40822003,131,A
49,1,9/12/91,24,f,92,The ball squeezed Josh,Non-sensible,edin_semantics,emo_sem_emo_sem,1.25520948274061,2,1,1,1,1652104.40768443,1,A
49,1,9/12/91,24,f,93,Tim sniffed the perfume,Sensible,edin_semantics,emo_sem_emo_sem,0.984865463571623,1,1,1,1,1652106.13650685,93,A
49,1,9/12/91,24,f,94,Ian labeled the box,Sensible,edin_semantics,emo_sem_emo_sem,1.3373254633043,2,2,2,1,1652108.2182152,136,A
49,1,9/12/91,24,f,95,The scarf knitted Tom,Non-sensible,edin_semantics,emo_sem_emo_sem,1.12600033101626,1,2,2,1,1652110.08827769,66,A
49,1,9/12/91,24,f,96,The juice drank Matt,Non-sensible,edin_semantics,emo_sem_emo_sem,0.985020693158731,2,2,2,1,1652111.8171819,60,A
49,1,9/12/91,24,f,97,The fruits mixed Jack,Non-sensible,edin_semantics,emo_sem_emo_sem,1.2315277128946,1,2,2,1,1652113.79305753,8,A
49,1,9/12/91,24,f,98,The shirt ironed Josh,Non-sensible,edin_semantics,emo_sem_emo_sem,1.42031508986838,1,1,1,1,1652115.95713394,55,A
49,1,9/12/91,24,f,99,The jar labeled Liz,Non-sensible,edin_semantics,emo_sem_emo_sem,1.42002162942663,1,1,1,1,1652118.1211879,61,A
49,1,9/12/91,24,f,100,The laptop fixed Jen,Non-sensible,edin_semantics,emo_sem_emo_sem,1.4552288542036,2,1,1,1,1652120.32055942,37,A
49,1,9/12/91,24,f,101,Liam mixed the nuts,Sensible,edin_semantics,emo_sem_emo_sem,2.61870006355457,2,1,1,1,1652123.68419785,83,A
49,1,9/12/91,24,f,102,The pill swallowed Luke,Non-sensible,edin_semantics,emo_sem_emo_sem,2.39587962417863,1,2,2,1,1652126.82444047,22,A
49,1,9/12/91,24,f,103,The potatoes mashed Will,Non-sensible,edin_semantics,emo_sem_emo_sem,1.40789931127802,1,2,2,1,1652128.97674062,28,A
49,1,9/12/91,24,f,104,Tim took the ticket,Sensible,edin_semantics,emo_sem_emo_sem,1.1022002149839,2,2,2,1,1652130.82323872,128,A
49,1,9/12/91,24,f,105,The cake iced Mary,Non-sensible,edin_semantics,emo_sem_emo_sem,1.76038945862092,1,2,2,1,1652133.32835937,44,A
49,1,9/12/91,24,f,106,Liam sliced the onion,Sensible,edin_semantics,emo_sem_emo_sem,0.913549465592951,1,2,2,1,1652134.98670063,78,A
49,1,9/12/91,24,f,107,The sofa sold Carl,Non-sensible,edin_semantics,emo_sem_emo_sem,1.23079326027073,2,2,2,1,1652136.9625644,38,A
49,1,9/12/91,24,f,108,Erin tidied the garage,Sensible,edin_semantics,emo_sem_emo_sem,0.984376042149961,2,1,1,1,1652138.69148689,77,A
49,1,9/12/91,24,f,109,The folder carried Dan,Non-sensible,edin_semantics,emo_sem_emo_sem,0.88981573889032,1,2,2,1,1652140.32633561,30,A
49,1,9/12/91,24,f,110,John carried the kettle,Sensible,edin_semantics,emo_sem_emo_sem,1.01929910760373,2,1,1,1,1652142.09051312,105,A
49,1,9/12/91,24,f,111,The eggs whisked Dan,Non-sensible,edin_semantics,emo_sem_emo_sem,0.971637296956033,1,2,2,1,1652143.80763978,62,A
49,1,9/12/91,24,f,112,Hugh kissed the rose,Sensible,edin_semantics,emo_sem_emo_sem,0.890006568282843,1,2,2,1,1652145.44243911,98,A
49,1,9/12/91,24,f,113,The bucket lent Max,Non-sensible,edin_semantics,emo_sem_emo_sem,1.00774607039057,1,1,1,1,1652147.1948426,19,A
49,1,9/12/91,24,f,114,The hill climbed Luke,Non-sensible,edin_semantics,emo_sem_emo_sem,0.925705459434539,2,2,2,1,1652148.86491779,68,A
49,1,9/12/91,24,f,115,The money offered Matt,Non-sensible,edin_semantics,emo_sem_emo_sem,0.878460908075795,2,1,1,1,1652150.48795209,9,A
49,1,9/12/91,24,f,116,The shelf dusted Jake,Non-sensible,edin_semantics,emo_sem_emo_sem,1.29006904480048,2,1,1,1,1652152.52265578,47,A
49,1,9/12/91,24,f,117,The handle pulled Tim,Non-sensible,edin_semantics,emo_sem_emo_sem,1.92480743862689,1,1,1,1,1652155.19242853,73,A
49,1,9/12/91,24,f,118,Jack cleaned the bath,Sensible,edin_semantics,emo_sem_emo_sem,1.31351380120032,2,2,2,1,1652157.25065363,80,A
49,1,9/12/91,24,f,119,Tom whisked the cream,Sensible,edin_semantics,emo_sem_emo_sem,1.11315318173729,1,1,1,1,1652159.1090008,137,A
49,1,9/12/91,24,f,120,The spoon licked Will,Non-sensible,edin_semantics,emo_sem_emo_sem,1.06617579143494,2,1,1,1,1652160.92010085,21,A
49,1,9/12/91,24,f,121,Max searched the internet,Sensible,edin_semantics,emo_sem_emo_sem,1.69018925144337,1,1,1,1,1652163.35473328,85,A
49,1,9/12/91,24,f,122,Lucy counted the shoes,Sensible,edin_semantics,emo_sem_emo_sem,2.16026687878184,2,1,1,1,1652166.25971274,123,A
49,1,9/12/91,24,f,123,Erin punched the monitor,Sensible,edin_semantics,emo_sem_emo_sem,1.70181252644397,1,1,1,1,1652168.70603483,125,A
49,1,9/12/91,24,f,124,Dan brushed the hair,Sensible,edin_semantics,emo_sem_emo_sem,1.2071788420435,1,1,1,1,1652170.65842241,147,A
49,1,9/12/91,24,f,125,Alex wrote the report,Sensible,edin_semantics,emo_sem_emo_sem,1.8313270052895,1,1,1,1,1652173.23409028,149,A
49,1,9/12/91,24,f,126,Rose built the shed,Sensible,edin_semantics,emo_sem_emo_sem,2.47797892731614,1,1,1,1,1652176.45669455,121,A
49,1,9/12/91,24,f,127,The ham ate Tim,Non-sensible,edin_semantics,emo_sem_emo_sem,1.92537126736715,2,1,1,1,1652179.12647179,67,A
49,1,9/12/91,24,f,128,Jack drank the beer,Sensible,edin_semantics,emo_sem_emo_sem,1.84236688772216,2,1,1,1,1652181.71393228,135,A
49,1,9/12/91,24,f,129,Ian pushed the button,Sensible,edin_semantics,emo_sem_emo_sem,2.45454315119423,2,1,1,1,1652184.91296383,101,A
49,1,9/12/91,24,f,130,Ella mashed the turnip,Sensible,edin_semantics,emo_sem_emo_sem,1.52511058491655,1,1,1,1,1652187.18295217,103,A
49,1,9/12/91,24,f,131,Liz weighed the sugar,Sensible,edin_semantics,emo_sem_emo_sem,1.63100070296787,2,1,1,1,1652189.55869175,139,A
49,1,9/12/91,24,f,132,Jay squeezed the lemon,Sensible,edin_semantics,emo_sem_emo_sem,1.11396781494841,1,2,2,1,1652191.41688882,76,A
49,1,9/12/91,24,f,133,The number dialed Tom,Non-sensible,edin_semantics,emo_sem_emo_sem,1.00776371033862,2,1,1,1,1652193.16935709,63,A
49,1,9/12/91,24,f,134,The tomato sliced Liz,Non-sensible,edin_semantics,emo_sem_emo_sem,1.1717410183046,2,1,1,1,1652195.08634053,3,A
49,1,9/12/91,24,f,135,The dishes washed Mark,Non-sensible,edin_semantics,emo_sem_emo_sem,1.44256964791566,2,1,1,1,1652197.27398004,57,A
49,1,9/12/91,24,f,136,The lever pulled Hugh,Non-sensible,edin_semantics,emo_sem_emo_sem,1.03104393626563,2,1,1,1,1652199.0499229,45,A
49,1,9/12/91,24,f,137,The jumper wore Joe,Non-sensible,edin_semantics,emo_sem_emo_sem,1.74901506351307,1,1,1,1,1652201.54330609,25,A
49,1,9/12/91,24,f,138,Josh crushed the ice,Sensible,edin_semantics,emo_sem_emo_sem,1.20723785483278,1,1,1,1,1652203.49564717,81,A
49,1,9/12/91,24,f,139,The room tidied Sam,Non-sensible,edin_semantics,emo_sem_emo_sem,1.74939672253095,1,2,2,1,1652205.98905826,2,A
49,1,9/12/91,24,f,140,The lesson taught Eve,Non-sensible,edin_semantics,emo_sem_emo_sem,3.34810171253048,2,1,1,1,1652210.08196524,15,A
49,1,9/12/91,24,f,141,The wine stored Leo,Non-sensible,edin_semantics,emo_sem_emo_sem,1.1253630570136,1,2,2,1,1652211.9519498,52,A
49,1,9/12/91,24,f,142,Ben got the radio,Sensible,edin_semantics,emo_sem_emo_sem,1.47830285620876,2,2,2,1,1652214.17480648,88,A
49,1,9/12/91,24,f,143,Ryan knitted the socks,Sensible,edin_semantics,emo_sem_emo_sem,1.10137339448556,1,1,1,1,1652216.02131613,141,A
49,1,9/12/91,24,f,144,The lolly sucked Leah,Non-sensible,edin_semantics,emo_sem_emo_sem,2.71350700198673,1,2,2,1,1652219.47906265,12,A
49,1,9/12/91,24,f,145,The box lifted Kate,Non-sensible,edin_semantics,emo_sem_emo_sem,1.93711096444167,1,1,2,0,1652222.16066522,69,A
49,1,9/12/91,24,f,146,Fred lent the car,Sensible,edin_semantics,emo_sem_emo_sem,1.2425938944798,1,2,2,1,1652224.14828343,94,A
49,1,9/12/91,24,f,147,Fred stored the rice,Sensible,edin_semantics,emo_sem_emo_sem,1.43115836987272,1,1,1,1,1652226.32409826,127,A
49,1,9/12/91,24,f,148,The teeth brushed Carl,Non-sensible,edin_semantics,emo_sem_emo_sem,0.807200394570827,2,2,2,1,1652227.87662446,72,A
49,1,9/12/91,24,f,149,Andy pulled the rope,Sensible,edin_semantics,emo_sem_emo_sem,0.961127888411283,1,2,2,1,1652229.58210443,148,A
49,1,9/12/91,24,f,150,Eve typed the message,Sensible,edin_semantics,emo_sem_emo_sem,1.33710641041398,2,2,2,1,1652231.66368257,124,A
49,1,9/12/91,24,f,151,Lily dented the lorry,Sensible,edin_semantics,emo_sem_emo_sem,0.917849381454289,1,2,2,1,1652246.49454549,71,B
49,1,9/12/91,24,f,152,The donut iced Joe,Non-sensible,edin_semantics,emo_sem_emo_sem,1.29838407575153,2,2,2,1,1652248.54104789,119,B
49,1,9/12/91,24,f,153,The invite mailed Ian,Non-sensible,edin_semantics,emo_sem_emo_sem,0.97211388964206,1,2,2,1,1652250.25816461,89,B
49,1,9/12/91,24,f,154,The hospital visited Tom,Non-sensible,edin_semantics,emo_sem_emo_sem,0.947867649840191,2,2,2,1,1652251.95179553,91,B
49,1,9/12/91,24,f,155,The turnip mashed Ella,Non-sensible,edin_semantics,emo_sem_emo_sem,2.39499122509733,1,2,2,1,1652255.09199998,103,B
49,1,9/12/91,24,f,156,The nuts mixed Liam,Non-sensible,edin_semantics,emo_sem_emo_sem,0.854246098781005,2,2,2,1,1652256.69152249,83,B
49,1,9/12/91,24,f,157,The hotline dialed Hugh,Non-sensible,edin_semantics,emo_sem_emo_sem,1.48959322227165,2,1,1,1,1652258.92614004,138,B
49,1,9/12/91,24,f,158,Phil chopped the herbs,Sensible,edin_semantics,emo_sem_emo_sem,1.33666926668957,1,2,2,1,1652261.00785063,27,B
49,1,9/12/91,24,f,159,The sweets offered Tom,Non-sensible,edin_semantics,emo_sem_emo_sem,1.3016862263903,2,1,1,1,1652263.05431839,84,B
49,1,9/12/91,24,f,160,Carl brushed the teeth,Sensible,edin_semantics,emo_sem_emo_sem,0.830554707441479,2,1,1,1,1652264.63029383,72,B
49,1,9/12/91,24,f,161,Erin posted the card,Sensible,edin_semantics,emo_sem_emo_sem,1.04199401661754,2,1,1,1,1652266.41798761,36,B
49,1,9/12/91,24,f,162,The poster read Luke,Non-sensible,edin_semantics,emo_sem_emo_sem,1.03110038326122,1,2,2,1,1652268.19398499,79,B
49,1,9/12/91,24,f,163,The hair brushed Dan,Non-sensible,edin_semantics,emo_sem_emo_sem,0.972496189875528,1,2,2,1,1652269.91105585,147,B
49,1,9/12/91,24,f,164,The report filed Ian,Non-sensible,edin_semantics,emo_sem_emo_sem,0.806569855893031,2,2,2,1,1652271.46353683,99,B
49,1,9/12/91,24,f,165,The salt passed Leo,Non-sensible,edin_semantics,emo_sem_emo_sem,1.10202381806448,2,1,1,1,1652273.310084,118,B
49,1,9/12/91,24,f,166,Tom knitted the scarf,Sensible,edin_semantics,emo_sem_emo_sem,1.01925901742652,2,1,1,1,1652275.0742429,66,B
49,1,9/12/91,24,f,167,Jen fixed the laptop,Sensible,edin_semantics,emo_sem_emo_sem,1.43162020901218,2,2,2,1,1652277.25016421,37,B
49,1,9/12/91,24,f,168,Bill counted the sheets,Sensible,edin_semantics,emo_sem_emo_sem,1.84279889985919,1,1,1,1,1652279.83752078,48,B
49,1,9/12/91,24,f,169,The kettle carried John,Non-sensible,edin_semantics,emo_sem_emo_sem,1.18439156538807,1,2,2,1,1652281.76637573,105,B
49,1,9/12/91,24,f,170,The office entered Joe,Non-sensible,edin_semantics,emo_sem_emo_sem,2.53682237910107,2,2,1,0,1652285.04776252,133,B
49,1,9/12/91,24,f,171,The carrots grated Tom,Non-sensible,edin_semantics,emo_sem_emo_sem,2.38306230213493,2,1,2,0,1652288.17628051,140,B
49,1,9/12/91,24,f,172,Matt offered the money,Sensible,edin_semantics,emo_sem_emo_sem,2.04216015036218,1,2,2,1,1652290.96364748,9,B
49,1,9/12/91,24,f,173,Eve taught the lesson,Sensible,edin_semantics,emo_sem_emo_sem,1.47772876452655,1,2,2,1,1652293.18648299,15,B
49,1,9/12/91,24,f,174,The bed sold Jay,Non-sensible,edin_semantics,emo_sem_emo_sem,1.11318781995215,1,2,2,1,1652295.04477211,113,B
49,1,9/12/91,24,f,175,Mike paid the bill,Sensible,edin_semantics,emo_sem_emo_sem,1.03088742401451,1,2,2,1,1652296.82070534,59,B
49,1,9/12/91,24,f,176,Phil sniffed the milk,Sensible,edin_semantics,emo_sem_emo_sem,2.28921913262457,1,1,1,1,1652299.85509633,18,B
49,1,9/12/91,24,f,177,Ian cancelled the plans,Sensible,edin_semantics,emo_sem_emo_sem,1.05460703885183,2,2,2,1,1652301.65458594,7,B
49,1,9/12/91,24,f,178,The debt paid Zoe,Non-sensible,edin_semantics,emo_sem_emo_sem,2.55978733580559,2,1,1,1,1652304.95941107,134,B
49,1,9/12/91,24,f,179,Erin crushed the garlic,Sensible,edin_semantics,emo_sem_emo_sem,1.20713137532584,1,1,1,1,1652306.91174893,6,B
49,1,9/12/91,24,f,180,Liz sliced the tomato,Sensible,edin_semantics,emo_sem_emo_sem,0.924884732579812,1,2,2,1,1652308.58183631,3,B
49,1,9/12/91,24,f,181,Jake dusted the shelf,Sensible,edin_semantics,emo_sem_emo_sem,0.807491609826684,2,2,2,1,1652310.13432049,47,B
49,1,9/12/91,24,f,182,The ice crushed Josh,Non-sensible,edin_semantics,emo_sem_emo_sem,1.92517723073252,2,2,2,1,1652312.80409613,81,B
49,1,9/12/91,24,f,183,Matt drank the juice,Sensible,edin_semantics,emo_sem_emo_sem,1.13669672049582,1,1,1,1,1652314.68591531,60,B
49,1,9/12/91,24,f,184,The pan washed Beth,Non-sensible,edin_semantics,emo_sem_emo_sem,0.878213310847059,1,1,1,1,1652316.30902402,132,B
49,1,9/12/91,24,f,185,Carl sold the sofa,Sensible,edin_semantics,emo_sem_emo_sem,1.20699603063986,2,1,1,1,1652318.26131153,38,B
49,1,9/12/91,24,f,186,Amy hugged the tree,Sensible,edin_semantics,emo_sem_emo_sem,1.17239496996626,1,2,2,1,1652320.17838701,11,B
49,1,9/12/91,24,f,187,Max kissed the mirror,Sensible,edin_semantics,emo_sem_emo_sem,0.948578048264608,2,2,2,1,1652321.87204712,23,B
49,1,9/12/91,24,f,188,Jon jumped the fence,Sensible,edin_semantics,emo_sem_emo_sem,0.854779459070414,2,2,2,1,1652323.47148784,17,B
49,1,9/12/91,24,f,189,The desk wiped Lucy,Non-sensible,edin_semantics,emo_sem_emo_sem,0.796353907324374,2,2,2,1,1652325.01226087,115,B
49,1,9/12/91,24,f,190,Will licked the spoon,Sensible,edin_semantics,emo_sem_emo_sem,0.807755243266001,2,2,2,1,1652326.56475884,21,B
49,1,9/12/91,24,f,191,Joe wore the jumper,Sensible,edin_semantics,emo_sem_emo_sem,0.737601219676435,1,2,2,1,1652328.04665795,25,B
49,1,9/12/91,24,f,192,Beth took the photo,Sensible,edin_semantics,emo_sem_emo_sem,1.34929351438768,2,2,2,1,1652330.14016084,53,B
49,1,9/12/91,24,f,193,Jen weighed the flour,Sensible,edin_semantics,emo_sem_emo_sem,1.50123221264221,2,1,1,1,1652332.38649659,64,B
49,1,9/12/91,24,f,194,The church described Erin,Non-sensible,edin_semantics,emo_sem_emo_sem,0.818519304739311,1,2,2,1,1652333.95072849,117,B
49,1,9/12/91,24,f,195,Kate served the dish,Sensible,edin_semantics,emo_sem_emo_sem,1.39533952879719,1,1,1,1,1652336.09146406,70,B
49,1,9/12/91,24,f,196,The radio got Ben,Non-sensible,edin_semantics,emo_sem_emo_sem,1.78364595142193,2,1,1,1,1652338.61997429,88,B
49,1,9/12/91,24,f,197,Ryan carried the gun,Sensible,edin_semantics,emo_sem_emo_sem,0.983441780088469,1,2,2,1,1652340.34886984,75,B
49,1,9/12/91,24,f,198,The internet searched Max,Non-sensible,edin_semantics,emo_sem_emo_sem,1.7367404026445,2,2,2,1,1652342.83049569,85,B
49,1,9/12/91,24,f,199,The pot scrubbed Josh,Non-sensible,edin_semantics,emo_sem_emo_sem,1.1480970941484,1,2,2,1,1652344.72403405,131,B
49,1,9/12/91,24,f,200,Jack mixed the fruits,Sensible,edin_semantics,emo_sem_emo_sem,1.70113484165631,2,1,1,1,1652347.17030419,8,B
49,1,9/12/91,24,f,201,The steak ate Mike,Non-sensible,edin_semantics,emo_sem_emo_sem,1.17239978094585,1,1,1,1,1652349.08765132,142,B
49,1,9/12/91,24,f,202,Liz labeled the jar,Sensible,edin_semantics,emo_sem_emo_sem,1.14809901826084,2,2,2,1,1652350.98096741,61,B
49,1,9/12/91,24,f,203,The trophy polished Anna,Non-sensible,edin_semantics,emo_sem_emo_sem,2.59469821350649,2,1,1,1,1652354.32115788,104,B
49,1,9/12/91,24,f,204,The trousers ironed Eve,Non-sensible,edin_semantics,emo_sem_emo_sem,1.8779737316072,2,1,1,1,1652356.94387691,130,B
49,1,9/12/91,24,f,205,The plate licked Jane,Non-sensible,edin_semantics,emo_sem_emo_sem,0.86614006315358,2,1,1,1,1652358.55515002,96,B
49,1,9/12/91,24,f,206,Leah sucked the lolly,Sensible,edin_semantics,emo_sem_emo_sem,0.831067541381344,2,1,1,1,1652360.13113444,12,B
49,1,9/12/91,24,f,207,The beer drank Jack,Non-sensible,edin_semantics,emo_sem_emo_sem,0.901944150915369,1,2,2,1,1652361.77771869,135,B
49,1,9/12/91,24,f,208,The cream whisked Tom,Non-sensible,edin_semantics,emo_sem_emo_sem,0.807168322382495,2,2,2,1,1652363.33019967,137,B
49,1,9/12/91,24,f,209,The stairs climbed Ben,Non-sensible,edin_semantics,emo_sem_emo_sem,0.724868888966739,2,2,2,1,1652364.80038121,143,B
49,1,9/12/91,24,f,210,Jon trimmed the bushes,Sensible,edin_semantics,emo_sem_emo_sem,1.20733086415567,2,1,1,1,1652366.75269855,32,B
49,1,9/12/91,24,f,211,Rob mailed the parcel,Sensible,edin_semantics,emo_sem_emo_sem,0.91333843069151,1,1,1,1,1652368.4110597,14,B
49,1,9/12/91,24,f,212,Mark washed the dishes,Sensible,edin_semantics,emo_sem_emo_sem,1.20766345271841,1,2,2,1,1652370.36338827,57,B
49,1,9/12/91,24,f,213,Jon cut the paper,Sensible,edin_semantics,emo_sem_emo_sem,1.24264617217705,2,1,1,1,1652372.35106871,20,B
49,1,9/12/91,24,f,214,The rules taught Josh,Non-sensible,edin_semantics,emo_sem_emo_sem,1.2076470956672,2,1,1,1,1652374.3033822,90,B
49,1,9/12/91,24,f,215,The candy sucked Sam,Non-sensible,edin_semantics,emo_sem_emo_sem,1.030718724709,1,2,2,1,1652376.07933244,87,B
49,1,9/12/91,24,f,216,The party cancelled Phil,Non-sensible,edin_semantics,emo_sem_emo_sem,1.25484610488638,2,1,1,1,1652378.07891197,82,B
49,1,9/12/91,24,f,217,The hedge jumped Sara,Non-sensible,edin_semantics,emo_sem_emo_sem,0.996203296585009,2,1,1,1,1652379.81936537,92,B
49,1,9/12/91,24,f,218,Tim cleaned the floor,Sensible,edin_semantics,emo_sem_emo_sem,1.06644648057409,2,2,2,1,1652381.63063348,5,B
49,1,9/12/91,24,f,219,The car lent Fred,Non-sensible,edin_semantics,emo_sem_emo_sem,0.98348924680613,1,1,1,1,1652383.35952293,94,B
49,1,9/12/91,24,f,220,The lemon squeezed Jay,Non-sensible,edin_semantics,emo_sem_emo_sem,0.924882487393916,2,1,1,1,1652385.02959459,76,B
49,1,9/12/91,24,f,221,John described the pen,Sensible,edin_semantics,emo_sem_emo_sem,1.26651267753914,2,1,1,1,1652387.04073454,42,B
49,1,9/12/91,24,f,222,Ewan wrote the story,Sensible,edin_semantics,emo_sem_emo_sem,1.41914028627798,2,1,1,1,1652389.20483822,74,B
49,1,9/12/91,24,f,223,Dan whisked the eggs,Sensible,edin_semantics,emo_sem_emo_sem,1.20746171870269,1,1,1,1,1652391.15720559,62,B
49,1,9/12/91,24,f,224,Matt pushed the trolley,Sensible,edin_semantics,emo_sem_emo_sem,1.07843922707252,1,1,1,1,1652392.9801903,26,B
49,1,9/12/91,24,f,225,Josh squeezed the ball,Sensible,edin_semantics,emo_sem_emo_sem,1.03146760980599,2,2,2,1,1652394.75609083,1,B
49,1,9/12/91,24,f,226,Sam tidied the room,Sensible,edin_semantics,emo_sem_emo_sem,4.40630789031275,2,1,1,1,1652399.90752792,2,B
49,1,9/12/91,24,f,227,The curtains measured Rob,Non-sensible,edin_semantics,emo_sem_emo_sem,1.07781510264613,1,1,1,1,1652401.73049435,126,B
49,1,9/12/91,24,f,228,Tim pulled the handle,Sensible,edin_semantics,emo_sem_emo_sem,1.13593789306469,2,2,2,1,1652403.61229525,73,B
49,1,9/12/91,24,f,229,Luke climbed the hill,Sensible,edin_semantics,emo_sem_emo_sem,1.83019742346369,2,1,1,1,1652406.18798942,68,B
49,1,9/12/91,24,f,230,The portrait painted Jay,Non-sensible,edin_semantics,emo_sem_emo_sem,0.972176109440625,2,1,1,1,1652407.90511577,110,B
49,1,9/12/91,24,f,231,Josh ironed the shirt,Sensible,edin_semantics,emo_sem_emo_sem,1.28970759152435,2,2,2,1,1652409.93986147,55,B
49,1,9/12/91,24,f,232,Lara filed the papers,Sensible,edin_semantics,emo_sem_emo_sem,1.14889921899885,1,1,1,1,1652411.83329303,24,B
49,1,9/12/91,24,f,233,Kate built the house,Sensible,edin_semantics,emo_sem_emo_sem,1.20792099204846,1,1,1,1,1652413.78582044,46,B
49,1,9/12/91,24,f,234,Amy measured the thread,Sensible,edin_semantics,emo_sem_emo_sem,0.795766024617478,2,2,2,1,1652415.32647769,51,B
49,1,9/12/91,24,f,235,Dan carried the folder,Sensible,edin_semantics,emo_sem_emo_sem,1.09002786432393,2,1,1,1,1652417.16118094,30,B
49,1,9/12/91,24,f,236,The bath cleaned Jack,Non-sensible,edin_semantics,emo_sem_emo_sem,1.03168730414473,2,1,1,1,1652418.93745061,80,B
49,1,9/12/91,24,f,237,Kate lifted the box,Sensible,edin_semantics,emo_sem_emo_sem,0.736787228146568,2,2,2,1,1652420.41900398,69,B
49,1,9/12/91,24,f,238,The fat chewed Adam,Non-sensible,edin_semantics,emo_sem_emo_sem,1.40733355819248,2,1,1,1,1652422.5712711,106,B
49,1,9/12/91,24,f,239,The pillow hugged Kate,Non-sensible,edin_semantics,emo_sem_emo_sem,0.97219278709963,1,1,2,0,1652424.28844876,86,B
49,1,9/12/91,24,f,240,Ella watched the movie,Sensible,edin_semantics,emo_sem_emo_sem,1.96006597881205,2,2,2,1,1652426.99351437,33,B
49,1,9/12/91,24,f,241,Max lent the bucket,Sensible,edin_semantics,emo_sem_emo_sem,1.05424173688516,2,2,2,1,1652428.79298729,19,B
49,1,9/12/91,24,f,242,Hugh pulled the lever,Sensible,edin_semantics,emo_sem_emo_sem,1.18370297574438,2,2,2,1,1652430.72182941,45,B
49,1,9/12/91,24,f,243,Rob stroked the fur,Sensible,edin_semantics,emo_sem_emo_sem,0.995825486257672,2,2,2,1,1652432.46246017,41,B
49,1,9/12/91,24,f,244,The ticket took Tim,Non-sensible,edin_semantics,emo_sem_emo_sem,0.983869622694328,2,1,1,1,1652434.19140543,128,B
49,1,9/12/91,24,f,245,The house dusted Alex,Non-sensible,edin_semantics,emo_sem_emo_sem,1.03124759462662,2,1,1,1,1652435.96731974,122,B
49,1,9/12/91,24,f,246,The radio fixed Luke,Non-sensible,edin_semantics,emo_sem_emo_sem,1.31350257596932,1,1,1,1,1652438.02558557,112,B
49,1,9/12/91,24,f,247,Mary visited the museum,Sensible,edin_semantics,emo_sem_emo_sem,1.23081538989209,1,1,1,1,1652440.00143074,16,B
49,1,9/12/91,24,f,248,Jon polished the coins,Sensible,edin_semantics,emo_sem_emo_sem,0.725626754341647,1,2,2,1,1652441.47158053,29,B
49,1,9/12/91,24,f,249,Sean read the book,Sensible,edin_semantics,emo_sem_emo_sem,1.78392048925161,1,1,1,1,1652444.00022002,4,B
49,1,9/12/91,24,f,250,The shed built Rose,Non-sensible,edin_semantics,emo_sem_emo_sem,0.784239607397467,2,2,2,1,1652445.52916868,121,B
49,1,9/12/91,24,f,251,Leo stored the wine,Sensible,edin_semantics,emo_sem_emo_sem,1.32447318267077,1,1,1,1,1652447.59911808,52,B
49,1,9/12/91,24,f,252,The monitor punched Erin,Non-sensible,edin_semantics,emo_sem_emo_sem,0.760742573300377,2,2,2,1,1652449.10456907,125,B
49,1,9/12/91,24,f,253,Jen searched the room,Sensible,edin_semantics,emo_sem_emo_sem,1.18414877890609,1,1,1,1,1652451.03338873,10,B
49,1,9/12/91,24,f,254,The dress wore Kate,Non-sensible,edin_semantics,emo_sem_emo_sem,1.01928435428999,1,1,1,1,1652452.79759414,100,B
49,1,9/12/91,24,f,255,Ryan entered the room,Sensible,edin_semantics,emo_sem_emo_sem,0.88968745036982,1,1,2,0,1652454.4323909,58,B
49,1,9/12/91,24,f,256,The wallet carried Leo,Non-sensible,edin_semantics,emo_sem_emo_sem,1.5604082532227,2,1,1,1,1652456.73760924,150,B
49,1,9/12/91,24,f,257,The button pushed Ian,Non-sensible,edin_semantics,emo_sem_emo_sem,1.25416392972693,1,2,2,1,1652458.73696202,101,B
49,1,9/12/91,24,f,258,The garage tidied Erin,Non-sensible,edin_semantics,emo_sem_emo_sem,1.23046291689388,1,2,2,1,1652460.71283477,77,B
49,1,9/12/91,24,f,259,The gift posted Jack,Non-sensible,edin_semantics,emo_sem_emo_sem,1.33673918386921,1,2,2,1,1652462.79458384,111,B
49,1,9/12/91,24,f,260,The gum swallowed Owen,Non-sensible,edin_semantics,emo_sem_emo_sem,1.07793248700909,1,2,2,1,1652464.6175785,97,B
49,1,9/12/91,24,f,261,Liz scrubbed the bowl,Sensible,edin_semantics,emo_sem_emo_sem,1.80633220099844,2,1,1,1,1652467.16975479,56,B
49,1,9/12/91,24,f,262,Andy grated the cheese,Sensible,edin_semantics,emo_sem_emo_sem,1.26635359972715,2,2,2,1,1652469.18100154,65,B
49,1,9/12/91,24,f,263,The problem solved Phil,Non-sensible,edin_semantics,emo_sem_emo_sem,1.65390183613636,1,2,2,1,1652471.58020384,109,B
49,1,9/12/91,24,f,264,Beth wiped the table,Sensible,edin_semantics,emo_sem_emo_sem,1.52486106334254,1,1,1,1,1652473.85017325,40,B
49,1,9/12/91,24,f,265,Joe solved the puzzle,Sensible,edin_semantics,emo_sem_emo_sem,1.40669307718053,1,1,1,1,1652476.0024176,34,B
49,1,9/12/91,24,f,266,The sugar weighed Liz,Non-sensible,edin_semantics,emo_sem_emo_sem,1.10138301621191,1,2,2,1,1652477.84894842,139,B
49,1,9/12/91,24,f,267,The bowl dented Ian,Non-sensible,edin_semantics,emo_sem_emo_sem,1.11323175881989,1,1,1,1,1652479.70717243,146,B
49,1,9/12/91,24,f,268,The carrots chopped Fred,Non-sensible,edin_semantics,emo_sem_emo_sem,2.94756456790492,2,1,1,1,1652483.40020295,102,B
49,1,9/12/91,24,f,269,Jeff watered the garden,Sensible,edin_semantics,emo_sem_emo_sem,4.58297070395201,1,1,1,1,1652488.72801838,54,B
49,1,9/12/91,24,f,270,The rose kissed Hugh,Non-sensible,edin_semantics,emo_sem_emo_sem,2.04262134805322,1,1,1,1,1652491.51537636,98,B
49,1,9/12/91,24,f,271,Lily got the kettle,Sensible,edin_semantics,emo_sem_emo_sem,2.07818425353616,2,2,2,1,1652494.33807595,13,B
49,1,9/12/91,24,f,272,The report wrote Alex,Non-sensible,edin_semantics,emo_sem_emo_sem,2.00724734808318,2,2,2,1,1652497.09023601,149,B
49,1,9/12/91,24,f,273,The door kicked Max,Non-sensible,edin_semantics,emo_sem_emo_sem,2.12481141556054,1,1,1,1,1652499.95994539,114,B
49,1,9/12/91,24,f,274,The crate lifted Amy,Non-sensible,edin_semantics,emo_sem_emo_sem,1.86594827147201,2,1,1,1,1652502.57093691,144,B
49,1,9/12/91,24,f,275,Mary iced the cake,Sensible,edin_semantics,emo_sem_emo_sem,2.97115781833418,1,1,1,1,1652506.28748788,44,B
49,1,9/12/91,24,f,276,The rope pulled Emma,Non-sensible,edin_semantics,emo_sem_emo_sem,1.71342585934326,2,1,1,1,1652508.74559008,120,B
49,1,9/12/91,24,f,277,The rice stored Fred,Non-sensible,edin_semantics,emo_sem_emo_sem,3.80661251186393,2,2,2,1,1652513.29717239,127,B
49,1,9/12/91,24,f,278,The shoes counted Lucy,Non-sensible,edin_semantics,emo_sem_emo_sem,5.05327315744944,2,2,2,1,1652519.09537558,123,B
49,1,9/12/91,24,f,279,Phil typed the letter,Sensible,edin_semantics,emo_sem_emo_sem,0.983811251586303,2,2,2,1,1652520.82430609,49,B
49,1,9/12/91,24,f,280,The plants watered Luke,Non-sensible,edin_semantics,emo_sem_emo_sem,0.760248341131955,2,2,2,1,1652522.3297359,129,B
49,1,9/12/91,24,f,281,Matt kicked the bike,Sensible,edin_semantics,emo_sem_emo_sem,2.53620434855111,2,2,2,1,1652525.61106272,39,B
49,1,9/12/91,24,f,282,Jane punched the wall,Sensible,edin_semantics,emo_sem_emo_sem,1.68898943136446,2,1,1,1,1652528.04562427,50,B
49,1,9/12/91,24,f,283,Luke swallowed the pill,Sensible,edin_semantics,emo_sem_emo_sem,1.08949225908145,1,1,1,1,1652529.8804327,22,B
49,1,9/12/91,24,f,284,Will mashed the potatoes,Sensible,edin_semantics,emo_sem_emo_sem,2.50048396899365,1,1,1,1,1652533.12648975,28,B
49,1,9/12/91,24,f,285,The hair trimmed Bill,Non-sensible,edin_semantics,emo_sem_emo_sem,1.37172094127163,1,2,2,1,1652535.24352816,107,B
49,1,9/12/91,24,f,286,Ryan painted the picture,Sensible,edin_semantics,emo_sem_emo_sem,0.901269993744791,1,2,2,1,1652536.89006879,35,B
49,1,9/12/91,24,f,287,The socks knitted Ryan,Non-sensible,edin_semantics,emo_sem_emo_sem,1.34870851784945,1,2,2,1,1652538.98358707,141,B
49,1,9/12/91,24,f,288,Ben chewed the toffee,Sensible,edin_semantics,emo_sem_emo_sem,2.40726845175959,2,2,2,1,1652542.13559761,31,B
49,1,9/12/91,24,f,289,The perfume sniffed Tim,Non-sensible,edin_semantics,emo_sem_emo_sem,0.971796054393053,1,2,2,1,1652543.85271882,93,B
49,1,9/12/91,24,f,290,Phil passed the towels,Sensible,edin_semantics,emo_sem_emo_sem,2.44231339124963,2,2,2,1,1652547.03997347,43,B
49,1,9/12/91,24,f,291,The ribbon cut Lucy,Non-sensible,edin_semantics,emo_sem_emo_sem,0.960265147034079,2,2,2,1,1652548.74535595,95,B
49,1,9/12/91,24,f,292,Tim ate the ham,Sensible,edin_semantics,emo_sem_emo_sem,1.01880647917278,1,2,2,1,1652550.50950715,67,B
49,1,9/12/91,24,f,293,The opera watched Adam,Non-sensible,edin_semantics,emo_sem_emo_sem,2.5119776725769,2,1,1,1,1652553.76736516,108,B
49,1,9/12/91,24,f,294,The message typed Eve,Non-sensible,edin_semantics,emo_sem_emo_sem,1.23054854944348,1,1,1,1,1652555.74330141,124,B
49,1,9/12/91,24,f,295,Tom dialed the number,Sensible,edin_semantics,emo_sem_emo_sem,1.40732040861622,2,2,2,1,1652557.89555505,63,B
49,1,9/12/91,24,f,296,The rope pulled Andy,Non-sensible,edin_semantics,emo_sem_emo_sem,2.91238332143985,2,1,1,1,1652561.5532722,148,B
49,1,9/12/91,24,f,297,The onion sliced Liam,Non-sensible,edin_semantics,emo_sem_emo_sem,1.21877068653703,2,1,1,1,1652563.5174123,78,B
49,1,9/12/91,24,f,298,The box labeled Ian,Non-sensible,edin_semantics,emo_sem_emo_sem,0.854230062570423,2,1,1,1,1652565.11695822,136,B
49,1,9/12/91,24,f,299,The dessert served Fred,Non-sensible,edin_semantics,emo_sem_emo_sem,0.760511333122849,1,2,2,1,1652566.62235116,145,B
49,1,9/12/91,24,f,300,The blanket stroked Ryan,Non-sensible,edin_semantics,emo_sem_emo_sem,1.1367813909892,1,1,1,1,1652568.50417548,116,B
