subject_column,AssignedList_column,subject_dob_column,subject_age_column,subject_gender_column,trialnum_column,Stim_column,Type_column,Experiment_column,OrderGroup_column,ReactionTime_column,StimSide_column,StimPosition_column,Response_column,Valid_column,TrialEndSecs_column,PairID_column,List_column
5,1,11/11/96,19,m,1,The lorry dented Lily,Non-sensible,edin_semantics,emo_sem_emo_sem,1.20212811678357,2,1,1,1,92411.5338787954,71,A
5,1,11/11/96,19,m,2,Tim sniffed the perfume,Sensible,edin_semantics,emo_sem_emo_sem,2.3238673392334,2,1,1,1,92414.6035154947,93,A
5,1,11/11/96,19,m,3,The movie watched Ella,Non-sensible,edin_semantics,emo_sem_emo_sem,0.994902770005865,2,1,1,1,92416.3441680607,33,A
5,1,11/11/96,19,m,4,Josh scrubbed the pot,Sensible,edin_semantics,emo_sem_emo_sem,1.20628659434442,2,1,1,1,92418.2965161926,131,A
5,1,11/11/96,19,m,5,The room tidied Sam,Non-sensible,edin_semantics,emo_sem_emo_sem,2.25510043720715,1,2,2,1,92421.2955986078,2,A
5,1,11/11/96,19,m,6,The spoon licked Will,Non-sensible,edin_semantics,emo_sem_emo_sem,1.18489990915987,1,1,1,1,92423.2244651003,21,A
5,1,11/11/96,19,m,7,The money offered Matt,Non-sensible,edin_semantics,emo_sem_emo_sem,1.10210239488515,2,1,1,1,92425.0709330564,9,A
5,1,11/11/96,19,m,8,Liam sliced the onion,Sensible,edin_semantics,emo_sem_emo_sem,2.12446247042681,2,2,2,1,92427.9407142729,78,A
5,1,11/11/96,19,m,9,Rob measured the curtains,Sensible,edin_semantics,emo_sem_emo_sem,1.84301666982356,2,2,2,1,92430.5281564788,126,A
5,1,11/11/96,19,m,10,The sofa sold Carl,Non-sensible,edin_semantics,emo_sem_emo_sem,1.47870183401392,2,2,2,1,92432.7509964823,38,A
5,1,11/11/96,19,m,11,The laptop fixed Jen,Non-sensible,edin_semantics,emo_sem_emo_sem,1.50337206796394,1,1,1,1,92434.9973841938,37,A
5,1,11/11/96,19,m,12,The picture painted Ryan,Non-sensible,edin_semantics,emo_sem_emo_sem,1.45533789956244,1,1,1,1,92437.1967441616,35,A
5,1,11/11/96,19,m,13,Adam chewed the fat,Sensible,edin_semantics,emo_sem_emo_sem,1.84313661974738,2,2,2,1,92439.7841959892,106,A
5,1,11/11/96,19,m,14,The story wrote Ewan,Non-sensible,edin_semantics,emo_sem_emo_sem,1.67925456578087,1,2,2,1,92442.2069755046,74,A
5,1,11/11/96,19,m,15,The teeth brushed Carl,Non-sensible,edin_semantics,emo_sem_emo_sem,2.14959999590064,2,2,2,1,92445.1002258522,72,A
5,1,11/11/96,19,m,16,Phil cancelled the party,Sensible,edin_semantics,emo_sem_emo_sem,1.49018719884043,2,2,2,1,92447.334851416,82,A
5,1,11/11/96,19,m,17,Ian pushed the button,Sensible,edin_semantics,emo_sem_emo_sem,1.2438908930344,1,1,1,1,92449.3224442971,101,A
5,1,11/11/96,19,m,18,Anna polished the trophy,Sensible,edin_semantics,emo_sem_emo_sem,1.6206583903404,2,2,2,1,92451.6864964618,104,A
5,1,11/11/96,19,m,19,Josh taught the rules,Sensible,edin_semantics,emo_sem_emo_sem,1.30405443545897,2,2,2,1,92453.7329161172,90,A
5,1,11/11/96,19,m,20,Jack cleaned the bath,Sensible,edin_semantics,emo_sem_emo_sem,1.18539061336196,2,2,2,1,92455.6617492546,80,A
5,1,11/11/96,19,m,21,The wall punched Jane,Non-sensible,edin_semantics,emo_sem_emo_sem,4.51160371114383,2,2,2,1,92460.9190148841,50,A
5,1,11/11/96,19,m,22,The thread measured Amy,Non-sensible,edin_semantics,emo_sem_emo_sem,1.64394984168757,1,1,1,1,92463.3065201439,51,A
5,1,11/11/96,19,m,23,The table wiped Beth,Non-sensible,edin_semantics,emo_sem_emo_sem,1.34973001645994,2,2,2,1,92465.400014689,40,A
5,1,11/11/96,19,m,24,Ian filed the report,Sensible,edin_semantics,emo_sem_emo_sem,1.04350140861061,1,1,1,1,92467.1877046204,99,A
5,1,11/11/96,19,m,25,The kettle got Lily,Non-sensible,edin_semantics,emo_sem_emo_sem,1.36021729536878,1,1,1,1,92469.2929494466,13,A
5,1,11/11/96,19,m,26,Tom grated the carrots,Sensible,edin_semantics,emo_sem_emo_sem,1.6789277503849,1,2,2,1,92471.715776108,140,A
5,1,11/11/96,19,m,27,Fred served the dessert,Sensible,edin_semantics,emo_sem_emo_sem,1.06849204353057,2,1,1,1,92473.5269720536,145,A
5,1,11/11/96,19,m,28,Luke watered the plants,Sensible,edin_semantics,emo_sem_emo_sem,1.23188435545308,1,1,1,1,92475.5028181816,129,A
5,1,11/11/96,19,m,29,Sam sucked the candy,Sensible,edin_semantics,emo_sem_emo_sem,1.93857505914639,2,1,1,1,92478.1843947725,87,A
5,1,11/11/96,19,m,30,The garden watered Jeff,Non-sensible,edin_semantics,emo_sem_emo_sem,1.16123802424409,1,2,2,1,92480.0897494779,54,A
5,1,11/11/96,19,m,31,Erin punched the monitor,Sensible,edin_semantics,emo_sem_emo_sem,1.02001784495951,1,1,1,1,92481.8538952292,125,A
5,1,11/11/96,19,m,32,Kate hugged the pillow,Sensible,edin_semantics,emo_sem_emo_sem,1.43224016411114,1,2,2,1,92484.0297094133,86,A
5,1,11/11/96,19,m,33,Hugh dialed the hotline,Sensible,edin_semantics,emo_sem_emo_sem,1.18585822562454,1,2,2,1,92485.9585550589,138,A
5,1,11/11/96,19,m,34,Erin tidied the garage,Sensible,edin_semantics,emo_sem_emo_sem,1.52609872839821,1,1,1,1,92488.2284260133,77,A
5,1,11/11/96,19,m,35,Ben got the radio,Sensible,edin_semantics,emo_sem_emo_sem,1.24390308046713,1,2,2,1,92490.2161013198,88,A
5,1,11/11/96,19,m,36,Beth washed the pan,Sensible,edin_semantics,emo_sem_emo_sem,1.30218783515738,1,2,2,1,92492.2625036562,132,A
5,1,11/11/96,19,m,37,The ball squeezed Josh,Non-sensible,edin_semantics,emo_sem_emo_sem,1.72623035257857,2,1,1,1,92494.7323926993,1,A
5,1,11/11/96,19,m,38,Bill trimmed the hair,Sensible,edin_semantics,emo_sem_emo_sem,1.36077150247002,1,1,1,1,92496.8376186029,107,A
5,1,11/11/96,19,m,39,Ryan knitted the socks,Sensible,edin_semantics,emo_sem_emo_sem,1.02147071425861,1,1,1,1,92498.6017775038,141,A
5,1,11/11/96,19,m,40,The flour weighed Jen,Non-sensible,edin_semantics,emo_sem_emo_sem,0.903859500802355,1,2,2,1,92500.248350849,64,A
5,1,11/11/96,19,m,41,The house built Kate,Non-sensible,edin_semantics,emo_sem_emo_sem,1.0446531202324,1,2,2,1,92502.0360475156,46,A
5,1,11/11/96,19,m,42,Tom offered the sweets,Sensible,edin_semantics,emo_sem_emo_sem,0.98503159750544,1,2,2,1,92503.7649558944,84,A
5,1,11/11/96,19,m,43,Dan brushed the hair,Sensible,edin_semantics,emo_sem_emo_sem,1.14951981545892,2,1,1,1,92505.6585003438,147,A
5,1,11/11/96,19,m,44,The lever pulled Hugh,Non-sensible,edin_semantics,emo_sem_emo_sem,1.30299765744712,1,1,1,1,92507.7049395632,45,A
5,1,11/11/96,19,m,45,The floor cleaned Tim,Non-sensible,edin_semantics,emo_sem_emo_sem,1.4437226424343,1,1,1,1,92509.8925393077,5,A
5,1,11/11/96,19,m,46,Fred lent the car,Sensible,edin_semantics,emo_sem_emo_sem,4.25476720737061,2,2,2,1,92514.8910120309,94,A
5,1,11/11/96,19,m,47,Lucy counted the shoes,Sensible,edin_semantics,emo_sem_emo_sem,1.00965083669871,1,1,1,1,92516.6434354041,123,A
5,1,11/11/96,19,m,48,The gun carried Ryan,Non-sensible,edin_semantics,emo_sem_emo_sem,1.81990129470069,1,1,1,1,92519.2073340714,75,A
5,1,11/11/96,19,m,49,The toffee chewed Ben,Non-sensible,edin_semantics,emo_sem_emo_sem,1.24453361933411,2,1,1,1,92521.1950135473,31,A
5,1,11/11/96,19,m,50,Leo passed the salt,Sensible,edin_semantics,emo_sem_emo_sem,1.04474484664388,1,2,2,1,92522.9827143832,118,A
5,1,11/11/96,19,m,51,Jay painted the portrait,Sensible,edin_semantics,emo_sem_emo_sem,0.925540929223644,1,2,2,1,92524.6527927804,110,A
5,1,11/11/96,19,m,52,The dish served Kate,Non-sensible,edin_semantics,emo_sem_emo_sem,1.96061601658585,2,2,2,1,92527.357852935,70,A
5,1,11/11/96,19,m,53,The trolley pushed Matt,Non-sensible,edin_semantics,emo_sem_emo_sem,0.950386277210782,1,2,2,1,92529.0514671735,26,A
5,1,11/11/96,19,m,54,Jack drank the beer,Sensible,edin_semantics,emo_sem_emo_sem,1.20786839377251,2,1,1,1,92531.0038108153,135,A
5,1,11/11/96,19,m,55,The towels passed Phil,Non-sensible,edin_semantics,emo_sem_emo_sem,1.74896727612941,2,1,1,1,92533.4971879121,43,A
5,1,11/11/96,19,m,56,The bill paid Mike,Non-sensible,edin_semantics,emo_sem_emo_sem,0.995274486456765,1,1,1,1,92535.2378584386,59,A
5,1,11/11/96,19,m,57,The handle pulled Tim,Non-sensible,edin_semantics,emo_sem_emo_sem,1.97380184786743,2,1,1,1,92537.9546602146,73,A
5,1,11/11/96,19,m,58,Erin described the church,Sensible,edin_semantics,emo_sem_emo_sem,1.16171910680714,2,1,1,1,92539.8599956767,117,A
5,1,11/11/96,19,m,59,Ian labeled the box,Sensible,edin_semantics,emo_sem_emo_sem,1.63151417845802,2,2,2,1,92542.235728205,136,A
5,1,11/11/96,19,m,60,The parcel mailed Rob,Non-sensible,edin_semantics,emo_sem_emo_sem,1.38518932842999,2,2,2,1,92544.3645136833,14,A
5,1,11/11/96,19,m,61,The fruits mixed Jack,Non-sensible,edin_semantics,emo_sem_emo_sem,1.93702918053896,2,2,2,1,92547.0460434488,8,A
5,1,11/11/96,19,m,62,John carried the kettle,Sensible,edin_semantics,emo_sem_emo_sem,0.926953387592221,2,1,1,1,92548.7161738029,105,A
5,1,11/11/96,19,m,63,The letter typed Phil,Non-sensible,edin_semantics,emo_sem_emo_sem,1.2562396407011,2,1,1,1,92550.7155426226,49,A
5,1,11/11/96,19,m,64,The eggs whisked Dan,Non-sensible,edin_semantics,emo_sem_emo_sem,2.3840263915481,2,2,2,1,92553.8440096242,62,A
5,1,11/11/96,19,m,65,Lucy wiped the desk,Sensible,edin_semantics,emo_sem_emo_sem,1.00928810045298,1,1,1,1,92555.5964400533,115,A
5,1,11/11/96,19,m,66,Luke read the poster,Sensible,edin_semantics,emo_sem_emo_sem,0.950043425720651,1,1,1,1,92557.2900607062,79,A
5,1,11/11/96,19,m,67,Owen swallowed the gum,Sensible,edin_semantics,emo_sem_emo_sem,1.29078489581298,1,1,1,1,92559.324757342,97,A
5,1,11/11/96,19,m,68,The folder carried Dan,Non-sensible,edin_semantics,emo_sem_emo_sem,0.867766763476538,1,2,2,1,92560.9360185865,30,A
5,1,11/11/96,19,m,69,The fence jumped Jon,Non-sensible,edin_semantics,emo_sem_emo_sem,1.0914913174347,2,1,1,1,92562.7707301679,17,A
5,1,11/11/96,19,m,70,The lolly sucked Leah,Non-sensible,edin_semantics,emo_sem_emo_sem,1.3140548588126,2,2,2,1,92564.8289469295,12,A
5,1,11/11/96,19,m,71,Leo carried the wallet,Sensible,edin_semantics,emo_sem_emo_sem,0.903180853681988,1,2,2,1,92566.4755305378,150,A
5,1,11/11/96,19,m,72,Fred chopped the carrots,Sensible,edin_semantics,emo_sem_emo_sem,1.1027932294237,2,2,2,1,92568.3220199822,102,A
5,1,11/11/96,19,m,73,The wine stored Leo,Non-sensible,edin_semantics,emo_sem_emo_sem,1.10268450477452,2,2,2,1,92570.1685434231,52,A
5,1,11/11/96,19,m,74,The box lifted Kate,Non-sensible,edin_semantics,emo_sem_emo_sem,0.855314743443159,1,1,1,1,92571.7680765165,69,A
5,1,11/11/96,19,m,75,The sheets counted Bill,Non-sensible,edin_semantics,emo_sem_emo_sem,0.808032025990542,1,2,2,1,92573.3205010443,48,A
5,1,11/11/96,19,m,76,The photo took Beth,Non-sensible,edin_semantics,emo_sem_emo_sem,1.68934831916704,2,1,1,1,92575.7550564983,53,A
5,1,11/11/96,19,m,77,The scarf knitted Tom,Non-sensible,edin_semantics,emo_sem_emo_sem,0.914361853618175,1,2,2,1,92577.4134041786,66,A
5,1,11/11/96,19,m,78,Tom visited the hospital,Sensible,edin_semantics,emo_sem_emo_sem,1.97408857307164,2,1,1,1,92580.1302418755,91,A
5,1,11/11/96,19,m,79,Liam mixed the nuts,Sensible,edin_semantics,emo_sem_emo_sem,1.05556760042964,2,1,1,1,92581.9297298754,83,A
5,1,11/11/96,19,m,80,The cake iced Mary,Non-sensible,edin_semantics,emo_sem_emo_sem,1.8443034052907,2,2,2,1,92584.5171659876,44,A
5,1,11/11/96,19,m,81,Mike ate the steak,Sensible,edin_semantics,emo_sem_emo_sem,1.72548820257362,2,2,2,1,92586.9869989044,142,A
5,1,11/11/96,19,m,82,Ryan stroked the blanket,Sensible,edin_semantics,emo_sem_emo_sem,0.902917220446398,1,2,2,1,92588.6335225378,116,A
5,1,11/11/96,19,m,83,Alex dusted the house,Sensible,edin_semantics,emo_sem_emo_sem,0.677813883914496,1,2,2,1,92590.0566198883,122,A
5,1,11/11/96,19,m,84,Phil solved the problem,Sensible,edin_semantics,emo_sem_emo_sem,1.09136046296044,2,1,1,1,92591.8914215925,109,A
5,1,11/11/96,19,m,85,Max kicked the door,Sensible,edin_semantics,emo_sem_emo_sem,2.44283745055145,1,2,2,1,92595.0786772026,114,A
5,1,11/11/96,19,m,86,Max searched the internet,Sensible,edin_semantics,emo_sem_emo_sem,1.65433513108292,1,1,1,1,92597.4779923976,85,A
5,1,11/11/96,19,m,87,The papers filed Lara,Non-sensible,edin_semantics,emo_sem_emo_sem,0.937824891079799,1,2,2,1,92599.1597944559,24,A
5,1,11/11/96,19,m,88,Sara jumped the hedge,Sensible,edin_semantics,emo_sem_emo_sem,1.34835925191874,1,2,2,1,92601.2533011885,92,A
5,1,11/11/96,19,m,89,The coins polished Jon,Non-sensible,edin_semantics,emo_sem_emo_sem,1.37403558983351,2,1,1,1,92603.3703039929,29,A
5,1,11/11/96,19,m,90,Fred stored the rice,Sensible,edin_semantics,emo_sem_emo_sem,0.914620676034247,1,1,1,1,92605.0286353163,127,A
5,1,11/11/96,19,m,91,Josh crushed the ice,Sensible,edin_semantics,emo_sem_emo_sem,1.16197728777479,2,1,1,1,92606.9339345369,81,A
5,1,11/11/96,19,m,92,The hill climbed Luke,Non-sensible,edin_semantics,emo_sem_emo_sem,1.72559436145821,2,2,2,1,92609.4038033745,68,A
5,1,11/11/96,19,m,93,Kate wore the dress,Sensible,edin_semantics,emo_sem_emo_sem,0.973812431693659,2,2,2,1,92611.1209332488,100,A
5,1,11/11/96,19,m,94,The jar labeled Liz,Non-sensible,edin_semantics,emo_sem_emo_sem,1.5377338702674,2,1,1,1,92613.4025888014,61,A
5,1,11/11/96,19,m,95,Joe entered the office,Sensible,edin_semantics,emo_sem_emo_sem,0.913732918357709,2,1,1,1,92615.0609351988,133,A
5,1,11/11/96,19,m,96,Jay sold the bed,Sensible,edin_semantics,emo_sem_emo_sem,1.07905661636323,1,1,1,1,92616.8838778974,113,A
5,1,11/11/96,19,m,97,The number dialed Tom,Non-sensible,edin_semantics,emo_sem_emo_sem,1.05637966778886,1,1,1,1,92618.6834069497,63,A
5,1,11/11/96,19,m,98,The shirt ironed Josh,Non-sensible,edin_semantics,emo_sem_emo_sem,2.00852927290543,1,1,1,1,92621.4354685487,55,A
5,1,11/11/96,19,m,99,Emma pulled the rope,Sensible,edin_semantics,emo_sem_emo_sem,1.23217332569766,2,2,2,1,92623.4113335993,120,A
5,1,11/11/96,19,m,100,The bowl scrubbed Liz,Non-sensible,edin_semantics,emo_sem_emo_sem,0.879590489712427,1,2,2,1,92625.0343897051,56,A
5,1,11/11/96,19,m,101,Lucy cut the ribbon,Sensible,edin_semantics,emo_sem_emo_sem,0.924862282103277,2,1,1,1,92626.7044873456,95,A
5,1,11/11/96,19,m,102,Eve ironed the trousers,Sensible,edin_semantics,emo_sem_emo_sem,1.05641045706579,2,2,2,1,92628.5039477634,130,A
5,1,11/11/96,19,m,103,The mirror kissed Max,Non-sensible,edin_semantics,emo_sem_emo_sem,0.784890030947281,2,1,1,1,92630.032880068,23,A
5,1,11/11/96,19,m,104,Ella mashed the turnip,Sensible,edin_semantics,emo_sem_emo_sem,0.985511076447438,1,1,1,1,92631.7617406593,103,A
5,1,11/11/96,19,m,105,Zoe paid the debt,Sensible,edin_semantics,emo_sem_emo_sem,0.985842702677473,1,2,2,1,92633.4906634706,134,A
5,1,11/11/96,19,m,106,Eve typed the message,Sensible,edin_semantics,emo_sem_emo_sem,1.00867327695596,2,2,2,1,92635.2430983897,124,A
5,1,11/11/96,19,m,107,The garlic crushed Erin,Non-sensible,edin_semantics,emo_sem_emo_sem,0.926761916736723,2,2,2,1,92636.913159468,6,A
5,1,11/11/96,19,m,108,The room entered Ryan,Non-sensible,edin_semantics,emo_sem_emo_sem,0.738437341249664,2,2,2,1,92638.3950787821,58,A
5,1,11/11/96,19,m,109,Tim took the ticket,Sensible,edin_semantics,emo_sem_emo_sem,0.972625119960867,2,2,2,1,92640.1122400871,128,A
5,1,11/11/96,19,m,110,The jumper wore Joe,Non-sensible,edin_semantics,emo_sem_emo_sem,0.713404371053912,1,1,1,1,92641.5705863562,25,A
5,1,11/11/96,19,m,111,The paper cut Jon,Non-sensible,edin_semantics,emo_sem_emo_sem,0.98438662616536,1,2,2,1,92643.2994386087,20,A
5,1,11/11/96,19,m,112,The milk sniffed Phil,Non-sensible,edin_semantics,emo_sem_emo_sem,0.878820757614449,1,2,2,1,92644.9225251831,18,A
5,1,11/11/96,19,m,113,The pen described John,Non-sensible,edin_semantics,emo_sem_emo_sem,0.773129486900871,1,2,2,1,92646.4397363924,42,A
5,1,11/11/96,19,m,114,The fur stroked Rob,Non-sensible,edin_semantics,emo_sem_emo_sem,1.38454050842847,1,1,1,1,92648.5685125697,41,A
5,1,11/11/96,19,m,115,The potatoes mashed Will,Non-sensible,edin_semantics,emo_sem_emo_sem,0.984854238398839,2,2,2,1,92650.2973532762,28,A
5,1,11/11/96,19,m,116,The pill swallowed Luke,Non-sensible,edin_semantics,emo_sem_emo_sem,3.18366192340909,2,2,2,1,92654.2256799942,22,A
5,1,11/11/96,19,m,117,The tree hugged Amy,Non-sensible,edin_semantics,emo_sem_emo_sem,0.925418413535226,2,1,1,1,92655.8957106038,11,A
5,1,11/11/96,19,m,118,The lesson taught Eve,Non-sensible,edin_semantics,emo_sem_emo_sem,0.937590764238848,1,1,1,1,92657.577576165,15,A
5,1,11/11/96,19,m,119,The tomato sliced Liz,Non-sensible,edin_semantics,emo_sem_emo_sem,1.57248182149488,1,1,1,1,92659.8944937857,3,A
5,1,11/11/96,19,m,120,Amy lifted the crate,Sensible,edin_semantics,emo_sem_emo_sem,1.20748416917922,1,2,2,1,92661.8468614816,144,A
5,1,11/11/96,19,m,121,The bushes trimmed Jon,Non-sensible,edin_semantics,emo_sem_emo_sem,1.88949662087543,2,2,2,1,92664.4813968585,32,A
5,1,11/11/96,19,m,122,Alex wrote the report,Sensible,edin_semantics,emo_sem_emo_sem,1.00769218927599,1,1,1,1,92666.233765709,149,A
5,1,11/11/96,19,m,123,The room searched Jen,Non-sensible,edin_semantics,emo_sem_emo_sem,0.854984400095418,1,2,2,1,92667.8332898221,10,A
5,1,11/11/96,19,m,124,The ham ate Tim,Non-sensible,edin_semantics,emo_sem_emo_sem,0.80852176802,1,1,1,1,92669.3857374418,67,A
5,1,11/11/96,19,m,125,The shelf dusted Jake,Non-sensible,edin_semantics,emo_sem_emo_sem,3.72575568447064,2,1,1,1,92673.855024811,47,A
5,1,11/11/96,19,m,126,Ben climbed the stairs,Sensible,edin_semantics,emo_sem_emo_sem,0.984473221018561,2,1,1,1,92675.5838850816,143,A
5,1,11/11/96,19,m,127,Rose built the shed,Sensible,edin_semantics,emo_sem_emo_sem,1.18433159030974,1,1,1,1,92677.5127214263,121,A
5,1,11/11/96,19,m,128,The book read Sean,Non-sensible,edin_semantics,emo_sem_emo_sem,0.914146328635979,1,2,2,1,92679.1710585227,4,A
5,1,11/11/96,19,m,129,Ian mailed the invite,Sensible,edin_semantics,emo_sem_emo_sem,1.04449757021212,2,1,1,1,92680.958792393,89,A
5,1,11/11/96,19,m,130,The juice drank Matt,Non-sensible,edin_semantics,emo_sem_emo_sem,1.10278200417815,2,2,2,1,92682.8052571418,60,A
5,1,11/11/96,19,m,131,The puzzle solved Joe,Non-sensible,edin_semantics,emo_sem_emo_sem,1.46814912788977,2,2,2,1,92685.0163606554,34,A
5,1,11/11/96,19,m,132,Jay squeezed the lemon,Sensible,edin_semantics,emo_sem_emo_sem,1.30353775279946,2,2,2,1,92687.0628220046,76,A
5,1,11/11/96,19,m,133,The plans cancelled Ian,Non-sensible,edin_semantics,emo_sem_emo_sem,2.38516816079209,2,1,1,1,92690.1912915719,7,A
5,1,11/11/96,19,m,134,Andy pulled the rope,Sensible,edin_semantics,emo_sem_emo_sem,1.27944289357401,1,2,2,1,92692.2142347195,148,A
5,1,11/11/96,19,m,135,The dishes washed Mark,Non-sensible,edin_semantics,emo_sem_emo_sem,1.25616266747238,2,1,1,1,92694.2136189339,57,A
5,1,11/11/96,19,m,136,The card posted Erin,Non-sensible,edin_semantics,emo_sem_emo_sem,1.12645671797509,1,2,2,1,92696.0836073366,36,A
5,1,11/11/96,19,m,137,Hugh kissed the rose,Sensible,edin_semantics,emo_sem_emo_sem,1.19699913533987,1,2,2,1,92698.0242763877,98,A
5,1,11/11/96,19,m,138,Adam watched the opera,Sensible,edin_semantics,emo_sem_emo_sem,0.879790299324668,2,2,2,1,92699.6472571239,108,A
5,1,11/11/96,19,m,139,Jane licked the plate,Sensible,edin_semantics,emo_sem_emo_sem,0.856772423576331,1,2,2,1,92701.2467767469,96,A
5,1,11/11/96,19,m,140,Luke fixed the radio,Sensible,edin_semantics,emo_sem_emo_sem,1.20925198719488,2,2,2,1,92703.1991328968,112,A
5,1,11/11/96,19,m,141,The bike kicked Matt,Non-sensible,edin_semantics,emo_sem_emo_sem,0.985474834888009,1,1,1,1,92704.9280406342,39,A
5,1,11/11/96,19,m,142,The museum visited Mary,Non-sensible,edin_semantics,emo_sem_emo_sem,2.63212258752901,2,2,2,1,92708.3034854752,16,A
5,1,11/11/96,19,m,143,Ian dented the bowl,Sensible,edin_semantics,emo_sem_emo_sem,1.47947830124758,2,2,2,1,92710.5263594751,146,A
5,1,11/11/96,19,m,144,Joe iced the donut,Sensible,edin_semantics,emo_sem_emo_sem,0.962547723393072,1,1,1,1,92712.2317175802,119,A
5,1,11/11/96,19,m,145,Jack posted the gift,Sensible,edin_semantics,emo_sem_emo_sem,0.679857843322679,1,1,1,1,92713.6548229488,111,A
5,1,11/11/96,19,m,146,Tom whisked the cream,Sensible,edin_semantics,emo_sem_emo_sem,1.16226273008215,1,1,1,1,92715.560202029,137,A
5,1,11/11/96,19,m,147,Liz weighed the sugar,Sensible,edin_semantics,emo_sem_emo_sem,1.5740049288579,2,1,1,1,92717.8770821253,139,A
5,1,11/11/96,19,m,148,The herbs chopped Phil,Non-sensible,edin_semantics,emo_sem_emo_sem,1.62109232680814,1,1,1,1,92720.2410730322,27,A
5,1,11/11/96,19,m,149,The bucket lent Max,Non-sensible,edin_semantics,emo_sem_emo_sem,1.20921157626435,1,1,1,1,92722.1934224469,19,A
5,1,11/11/96,19,m,150,The cheese grated Andy,Non-sensible,edin_semantics,emo_sem_emo_sem,0.950084798809257,1,1,1,1,92723.8870575323,65,A
5,1,11/11/96,19,m,151,The turnip mashed Ella,Non-sensible,edin_semantics,emo_sem_emo_sem,4.17656146567606,1,2,2,1,92746.468482037,103,B
5,1,11/11/96,19,m,152,The trophy polished Anna,Non-sensible,edin_semantics,emo_sem_emo_sem,1.28730731041287,2,1,1,1,92748.503158788,104,B
5,1,11/11/96,19,m,153,Sean read the book,Sensible,edin_semantics,emo_sem_emo_sem,3.71318050730042,1,1,1,1,92752.9606471266,4,B
5,1,11/11/96,19,m,154,Max kissed the mirror,Sensible,edin_semantics,emo_sem_emo_sem,2.00790354487253,1,2,2,1,92755.71277287,23,B
5,1,11/11/96,19,m,155,The carrots chopped Fred,Non-sensible,edin_semantics,emo_sem_emo_sem,0.97341634039185,2,1,1,1,92757.429918139,102,B
5,1,11/11/96,19,m,156,The trousers ironed Eve,Non-sensible,edin_semantics,emo_sem_emo_sem,0.950447535054991,2,1,1,1,92759.1234887593,130,B
5,1,11/11/96,19,m,157,Mary iced the cake,Sensible,edin_semantics,emo_sem_emo_sem,1.1146557629836,1,1,1,1,92760.9817528596,44,B
5,1,11/11/96,19,m,158,The plate licked Jane,Non-sensible,edin_semantics,emo_sem_emo_sem,1.22093523731746,1,1,1,1,92762.9459022671,96,B
5,1,11/11/96,19,m,159,Rob stroked the fur,Sensible,edin_semantics,emo_sem_emo_sem,2.64396074622346,1,2,2,1,92766.3331047657,41,B
5,1,11/11/96,19,m,160,The opera watched Adam,Non-sensible,edin_semantics,emo_sem_emo_sem,0.879481444324483,2,1,1,1,92767.9561493255,108,B
5,1,11/11/96,19,m,161,The monitor punched Erin,Non-sensible,edin_semantics,emo_sem_emo_sem,2.24410032431479,1,2,2,1,92770.9434901192,125,B
5,1,11/11/96,19,m,162,Carl sold the sofa,Sensible,edin_semantics,emo_sem_emo_sem,1.23234427036368,2,1,1,1,92772.9193503589,38,B
5,1,11/11/96,19,m,163,Jake dusted the shelf,Sensible,edin_semantics,emo_sem_emo_sem,1.07968266512034,1,2,2,1,92774.7423199982,47,B
5,1,11/11/96,19,m,164,Lily got the kettle,Sensible,edin_semantics,emo_sem_emo_sem,1.04450109814934,1,2,2,1,92776.5300192305,13,B
5,1,11/11/96,19,m,165,Bill counted the sheets,Sensible,edin_semantics,emo_sem_emo_sem,1.12675530987326,2,1,1,1,92778.4001067362,48,B
5,1,11/11/96,19,m,166,Erin posted the card,Sensible,edin_semantics,emo_sem_emo_sem,1.57409793815168,2,1,1,1,92780.7175291728,36,B
5,1,11/11/96,19,m,167,Ella watched the movie,Sensible,edin_semantics,emo_sem_emo_sem,1.1030231869081,1,2,2,1,92782.5635269509,33,B
5,1,11/11/96,19,m,168,The socks knitted Ryan,Non-sensible,edin_semantics,emo_sem_emo_sem,1.18550158308062,1,2,2,1,92784.4924309679,141,B
5,1,11/11/96,19,m,169,The car lent Fred,Non-sensible,edin_semantics,emo_sem_emo_sem,1.15042617499421,2,1,1,1,92786.3858958783,94,B
5,1,11/11/96,19,m,170,The shed built Rose,Non-sensible,edin_semantics,emo_sem_emo_sem,1.46796375075064,2,2,2,1,92788.5970042027,121,B
5,1,11/11/96,19,m,171,The pillow hugged Kate,Non-sensible,edin_semantics,emo_sem_emo_sem,1.63214311371848,2,1,1,1,92790.9727697654,86,B
5,1,11/11/96,19,m,172,Erin crushed the garlic,Sensible,edin_semantics,emo_sem_emo_sem,1.15019814186962,1,1,1,1,92792.8662940094,6,B
5,1,11/11/96,19,m,173,John described the pen,Sensible,edin_semantics,emo_sem_emo_sem,1.26757394558808,1,1,1,1,92794.8774740472,42,B
5,1,11/11/96,19,m,174,The party cancelled Phil,Non-sensible,edin_semantics,emo_sem_emo_sem,1.13837794358551,1,1,1,1,92796.7592791202,82,B
5,1,11/11/96,19,m,175,Mike paid the bill,Sensible,edin_semantics,emo_sem_emo_sem,1.20905025323736,2,2,2,1,92798.7116173097,59,B
5,1,11/11/96,19,m,176,The ice crushed Josh,Non-sensible,edin_semantics,emo_sem_emo_sem,0.973752456731745,1,2,2,1,92800.4287436561,81,B
5,1,11/11/96,19,m,177,The hospital visited Tom,Non-sensible,edin_semantics,emo_sem_emo_sem,0.891293945285724,1,2,2,1,92802.0635532501,91,B
5,1,11/11/96,19,m,178,The wallet carried Leo,Non-sensible,edin_semantics,emo_sem_emo_sem,1.45617081380624,1,1,1,1,92804.2628731276,150,B
5,1,11/11/96,19,m,179,Beth wiped the table,Sensible,edin_semantics,emo_sem_emo_sem,1.0088461459527,2,1,1,1,92806.0153183099,40,B
5,1,11/11/96,19,m,180,Eve taught the lesson,Sensible,edin_semantics,emo_sem_emo_sem,0.985761880816426,1,2,2,1,92807.74419173,15,B
5,1,11/11/96,19,m,181,The donut iced Joe,Non-sensible,edin_semantics,emo_sem_emo_sem,1.86765547304822,1,2,2,1,92810.3551886998,119,B
5,1,11/11/96,19,m,182,The portrait painted Jay,Non-sensible,edin_semantics,emo_sem_emo_sem,1.02063747927605,2,1,1,1,92812.119353053,110,B
5,1,11/11/96,19,m,183,Tim ate the ham,Sensible,edin_semantics,emo_sem_emo_sem,1.10228937564534,2,2,2,1,92813.9658453839,67,B
5,1,11/11/96,19,m,184,Lily dented the lorry,Sensible,edin_semantics,emo_sem_emo_sem,1.06759658854571,2,2,2,1,92815.7770939278,71,B
5,1,11/11/96,19,m,185,Tom knitted the scarf,Sensible,edin_semantics,emo_sem_emo_sem,0.973487540599308,2,1,1,1,92817.4941942958,66,B
5,1,11/11/96,19,m,186,The gum swallowed Owen,Non-sensible,edin_semantics,emo_sem_emo_sem,1.03157601361454,1,2,2,1,92819.2701666598,97,B
5,1,11/11/96,19,m,187,Jeff watered the garden,Sensible,edin_semantics,emo_sem_emo_sem,1.07812395764631,1,1,1,1,92821.0931193008,54,B
5,1,11/11/96,19,m,188,Ryan painted the picture,Sensible,edin_semantics,emo_sem_emo_sem,1.47753889713204,2,2,2,1,92823.3159868863,35,B
5,1,11/11/96,19,m,189,The report wrote Alex,Non-sensible,edin_semantics,emo_sem_emo_sem,1.46638387565326,2,2,2,1,92825.5270701944,149,B
5,1,11/11/96,19,m,190,Amy measured the thread,Sensible,edin_semantics,emo_sem_emo_sem,1.09028059299453,1,2,2,1,92827.361794284,51,B
5,1,11/11/96,19,m,191,The kettle carried John,Non-sensible,edin_semantics,emo_sem_emo_sem,0.984327613376081,2,2,2,1,92829.0907687314,105,B
5,1,11/11/96,19,m,192,The bath cleaned Jack,Non-sensible,edin_semantics,emo_sem_emo_sem,1.08940213626192,1,1,1,1,92830.9254556173,80,B
5,1,11/11/96,19,m,193,The beer drank Jack,Non-sensible,edin_semantics,emo_sem_emo_sem,1.25485123644467,2,2,2,1,92832.9248763939,135,B
5,1,11/11/96,19,m,194,The plants watered Luke,Non-sensible,edin_semantics,emo_sem_emo_sem,0.843457662165747,1,2,2,1,92834.5126258512,129,B
5,1,11/11/96,19,m,195,Joe wore the jumper,Sensible,edin_semantics,emo_sem_emo_sem,1.17336066308781,2,2,2,1,92836.4297090284,25,B
5,1,11/11/96,19,m,196,The garage tidied Erin,Non-sensible,edin_semantics,emo_sem_emo_sem,0.950138680069358,2,2,2,1,92838.1233232669,77,B
5,1,11/11/96,19,m,197,Phil typed the letter,Sensible,edin_semantics,emo_sem_emo_sem,0.914390397854731,2,2,2,1,92839.7816449688,49,B
5,1,11/11/96,19,m,198,The bowl dented Ian,Non-sensible,edin_semantics,emo_sem_emo_sem,1.00890612091462,2,1,1,1,92841.534047495,146,B
5,1,11/11/96,19,m,199,The report filed Ian,Non-sensible,edin_semantics,emo_sem_emo_sem,1.16221430110454,1,2,2,1,92843.4393435083,99,B
5,1,11/11/96,19,m,200,Leah sucked the lolly,Sensible,edin_semantics,emo_sem_emo_sem,1.25590865590493,2,1,1,1,92845.4387684543,12,B
5,1,11/11/96,19,m,201,The message typed Eve,Non-sensible,edin_semantics,emo_sem_emo_sem,1.2439999384078,2,1,1,1,92847.4263946904,124,B
5,1,11/11/96,19,m,202,Ewan wrote the story,Sensible,edin_semantics,emo_sem_emo_sem,0.903069883977878,2,1,1,1,92849.072972205,74,B
5,1,11/11/96,19,m,203,The onion sliced Liam,Non-sensible,edin_semantics,emo_sem_emo_sem,0.950560749828583,2,1,1,1,92850.7665979895,78,B
5,1,11/11/96,19,m,204,The rice stored Fred,Non-sensible,edin_semantics,emo_sem_emo_sem,1.27983738126932,2,2,2,1,92852.789488218,127,B
5,1,11/11/96,19,m,205,Jen weighed the flour,Sensible,edin_semantics,emo_sem_emo_sem,1.27953718576464,2,1,1,1,92854.8124079529,64,B
5,1,11/11/96,19,m,206,Ben chewed the toffee,Sensible,edin_semantics,emo_sem_emo_sem,2.71422734293446,2,2,2,1,92858.2702234276,31,B
5,1,11/11/96,19,m,207,The debt paid Zoe,Non-sensible,edin_semantics,emo_sem_emo_sem,1.12672131336876,2,1,1,1,92860.1402208105,134,B
5,1,11/11/96,19,m,208,The internet searched Max,Non-sensible,edin_semantics,emo_sem_emo_sem,1.15026388980914,2,2,2,1,92862.0337742401,85,B
5,1,11/11/96,19,m,209,The invite mailed Ian,Non-sensible,edin_semantics,emo_sem_emo_sem,1.25634932750836,1,2,2,1,92864.0331850744,89,B
5,1,11/11/96,19,m,210,Max lent the bucket,Sensible,edin_semantics,emo_sem_emo_sem,1.07958709004743,2,2,2,1,92865.8561742776,19,B
5,1,11/11/96,19,m,211,The problem solved Phil,Non-sensible,edin_semantics,emo_sem_emo_sem,1.12666037624876,2,2,2,1,92867.7261867344,109,B
5,1,11/11/96,19,m,212,Tom dialed the number,Sensible,edin_semantics,emo_sem_emo_sem,0.950680379013647,2,2,2,1,92869.4197952,63,B
5,1,11/11/96,19,m,213,Phil passed the towels,Sensible,edin_semantics,emo_sem_emo_sem,0.89150947026792,1,2,2,1,92871.0545922857,43,B
5,1,11/11/96,19,m,214,Jon cut the paper,Sensible,edin_semantics,emo_sem_emo_sem,1.4681045475736,1,1,1,1,92873.265674311,20,B
5,1,11/11/96,19,m,215,Phil chopped the herbs,Sensible,edin_semantics,emo_sem_emo_sem,1.0910301196127,2,2,2,1,92875.1004003248,27,B
5,1,11/11/96,19,m,216,Jon jumped the fence,Sensible,edin_semantics,emo_sem_emo_sem,1.12642753229011,1,2,2,1,92876.9704547962,17,B
5,1,11/11/96,19,m,217,The dessert served Fred,Non-sensible,edin_semantics,emo_sem_emo_sem,1.72622906971083,1,2,2,1,92879.4403297276,145,B
5,1,11/11/96,19,m,218,The pan washed Beth,Non-sensible,edin_semantics,emo_sem_emo_sem,2.0554005044396,2,1,1,1,92882.2394498597,132,B
5,1,11/11/96,19,m,219,The nuts mixed Liam,Non-sensible,edin_semantics,emo_sem_emo_sem,2.85526823879627,2,2,2,1,92885.8383854485,83,B
5,1,11/11/96,19,m,220,Tim pulled the handle,Sensible,edin_semantics,emo_sem_emo_sem,1.10206615334027,2,2,2,1,92887.6848870803,73,B
5,1,11/11/96,19,m,221,Phil sniffed the milk,Sensible,edin_semantics,emo_sem_emo_sem,1.17345848321565,1,1,1,1,92889.6019580701,18,B
5,1,11/11/96,19,m,222,Dan whisked the eggs,Sensible,edin_semantics,emo_sem_emo_sem,1.07926668906293,1,1,1,1,92891.4249655545,62,B
5,1,11/11/96,19,m,223,The hair trimmed Bill,Non-sensible,edin_semantics,emo_sem_emo_sem,1.36146586494579,2,2,2,1,92893.5301975517,107,B
5,1,11/11/96,19,m,224,Jen searched the room,Sensible,edin_semantics,emo_sem_emo_sem,1.03261547263537,1,1,1,1,92895.3061856312,10,B
5,1,11/11/96,19,m,225,The desk wiped Lucy,Non-sensible,edin_semantics,emo_sem_emo_sem,0.926421951735392,1,2,2,1,92896.9762220138,115,B
5,1,11/11/96,19,m,226,Amy hugged the tree,Sensible,edin_semantics,emo_sem_emo_sem,1.4791425056319,2,2,2,1,92899.1990892787,11,B
5,1,11/11/96,19,m,227,The rose kissed Hugh,Non-sensible,edin_semantics,emo_sem_emo_sem,1.06825374731852,1,1,1,1,92901.0102996567,98,B
5,1,11/11/96,19,m,228,The office entered Joe,Non-sensible,edin_semantics,emo_sem_emo_sem,0.903007343236823,1,2,2,1,92902.6568553622,133,B
5,1,11/11/96,19,m,229,Matt offered the money,Sensible,edin_semantics,emo_sem_emo_sem,0.91506968640897,1,2,2,1,92904.3151751397,9,B
5,1,11/11/96,19,m,230,Kate built the house,Sensible,edin_semantics,emo_sem_emo_sem,1.72609436658968,2,1,1,1,92906.7850295449,46,B
5,1,11/11/96,19,m,231,Josh squeezed the ball,Sensible,edin_semantics,emo_sem_emo_sem,1.66771307466843,2,2,2,1,92909.1960930965,1,B
5,1,11/11/96,19,m,232,Leo stored the wine,Sensible,edin_semantics,emo_sem_emo_sem,1.02051945369749,2,1,1,1,92910.960245583,52,B
5,1,11/11/96,19,m,233,Ryan carried the gun,Sensible,edin_semantics,emo_sem_emo_sem,1.20907783530129,2,2,2,1,92912.912606223,75,B
5,1,11/11/96,19,m,234,The hotline dialed Hugh,Non-sensible,edin_semantics,emo_sem_emo_sem,0.726869230216835,1,1,1,1,92914.3827592201,138,B
5,1,11/11/96,19,m,235,The button pushed Ian,Non-sensible,edin_semantics,emo_sem_emo_sem,0.8679543856706,1,2,2,1,92915.9940291241,101,B
5,1,11/11/96,19,m,236,The blanket stroked Ryan,Non-sensible,edin_semantics,emo_sem_emo_sem,0.832480961966212,1,1,1,1,92917.5700308663,116,B
5,1,11/11/96,19,m,237,Matt pushed the trolley,Sensible,edin_semantics,emo_sem_emo_sem,1.22095159412129,2,1,1,1,92919.5341449944,26,B
5,1,11/11/96,19,m,238,The pot scrubbed Josh,Non-sensible,edin_semantics,emo_sem_emo_sem,0.997071810881607,1,2,2,1,92921.274800447,131,B
5,1,11/11/96,19,m,239,Joe solved the puzzle,Sensible,edin_semantics,emo_sem_emo_sem,1.00873036541452,2,1,1,1,92923.0271952759,34,B
5,1,11/11/96,19,m,240,The radio fixed Luke,Non-sensible,edin_semantics,emo_sem_emo_sem,1.10314730618848,1,1,1,1,92924.87373347,112,B
5,1,11/11/96,19,m,241,The church described Erin,Non-sensible,edin_semantics,emo_sem_emo_sem,3.23169448820408,2,2,2,1,92928.8490039025,117,B
5,1,11/11/96,19,m,242,Rob mailed the parcel,Sensible,edin_semantics,emo_sem_emo_sem,1.65548748415313,2,1,1,1,92931.2482992128,14,B
5,1,11/11/96,19,m,243,The crate lifted Amy,Non-sensible,edin_semantics,emo_sem_emo_sem,1.06720819456677,1,1,1,1,92933.0594983656,144,B
5,1,11/11/96,19,m,244,The rules taught Josh,Non-sensible,edin_semantics,emo_sem_emo_sem,0.726471214584308,1,1,1,1,92934.5296311572,90,B
5,1,11/11/96,19,m,245,The radio got Ben,Non-sensible,edin_semantics,emo_sem_emo_sem,0.93820687061816,1,1,1,1,92936.211486776,88,B
5,1,11/11/96,19,m,246,Will licked the spoon,Sensible,edin_semantics,emo_sem_emo_sem,1.50255134113831,2,2,2,1,92938.4578728839,21,B
5,1,11/11/96,19,m,247,The shoes counted Lucy,Non-sensible,edin_semantics,emo_sem_emo_sem,1.53742212877842,2,2,2,1,92940.7395611501,123,B
5,1,11/11/96,19,m,248,The hedge jumped Sara,Non-sensible,edin_semantics,emo_sem_emo_sem,1.00881182872399,2,1,1,1,92942.4919473195,92,B
5,1,11/11/96,19,m,249,Kate served the dish,Sensible,edin_semantics,emo_sem_emo_sem,0.997207796870498,2,1,1,1,92944.2326181667,70,B
5,1,11/11/96,19,m,250,Beth took the photo,Sensible,edin_semantics,emo_sem_emo_sem,1.51444979550433,2,2,2,1,92946.4907407645,53,B
5,1,11/11/96,19,m,251,The poster read Luke,Non-sensible,edin_semantics,emo_sem_emo_sem,1.2091958608944,2,2,2,1,92948.4430988387,79,B
5,1,11/11/96,19,m,252,The ticket took Tim,Non-sensible,edin_semantics,emo_sem_emo_sem,1.38500555489736,2,1,1,1,92950.5718682809,128,B
5,1,11/11/96,19,m,253,Andy grated the cheese,Sensible,edin_semantics,emo_sem_emo_sem,0.714993867804878,1,2,2,1,92952.0302684312,65,B
5,1,11/11/96,19,m,254,Kate lifted the box,Sensible,edin_semantics,emo_sem_emo_sem,1.87921171737253,2,2,2,1,92954.6530262658,69,B
5,1,11/11/96,19,m,255,The lemon squeezed Jay,Non-sensible,edin_semantics,emo_sem_emo_sem,1.07956175303843,2,1,1,1,92956.4760090546,76,B
5,1,11/11/96,19,m,256,Liz labeled the jar,Sensible,edin_semantics,emo_sem_emo_sem,1.97322005870228,2,2,2,1,92959.1928153207,61,B
5,1,11/11/96,19,m,257,Jen fixed the laptop,Sensible,edin_semantics,emo_sem_emo_sem,0.844388396537397,1,2,2,1,92960.7805968503,37,B
5,1,11/11/96,19,m,258,The hair brushed Dan,Non-sensible,edin_semantics,emo_sem_emo_sem,1.04387857732945,1,2,2,1,92962.5682964033,147,B
5,1,11/11/96,19,m,259,Dan carried the folder,Sensible,edin_semantics,emo_sem_emo_sem,0.808988097385736,1,1,1,1,92964.1207513996,30,B
5,1,11/11/96,19,m,260,Josh ironed the shirt,Sensible,edin_semantics,emo_sem_emo_sem,2.03122546480154,2,2,2,1,92966.8964011177,55,B
5,1,11/11/96,19,m,261,The steak ate Mike,Non-sensible,edin_semantics,emo_sem_emo_sem,0.867276700722869,2,1,1,1,92968.5076902649,142,B
5,1,11/11/96,19,m,262,Ian cancelled the plans,Sensible,edin_semantics,emo_sem_emo_sem,1.1029295361659,1,2,2,1,92970.354195104,7,B
5,1,11/11/96,19,m,263,The sweets offered Tom,Non-sensible,edin_semantics,emo_sem_emo_sem,1.18575270817382,1,1,1,1,92972.283021827,84,B
5,1,11/11/96,19,m,264,The house dusted Alex,Non-sensible,edin_semantics,emo_sem_emo_sem,0.879321404194343,2,1,1,1,92973.9060651039,122,B
5,1,11/11/96,19,m,265,The gift posted Jack,Non-sensible,edin_semantics,emo_sem_emo_sem,1.00820245749492,1,2,2,1,92975.6584605743,111,B
5,1,11/11/96,19,m,266,Mary visited the museum,Sensible,edin_semantics,emo_sem_emo_sem,0.985389522917103,2,1,1,1,92977.3873641423,16,B
5,1,11/11/96,19,m,267,The fat chewed Adam,Non-sensible,edin_semantics,emo_sem_emo_sem,1.05620198795805,2,1,1,1,92979.1868309745,106,B
5,1,11/11/96,19,m,268,Hugh pulled the lever,Sensible,edin_semantics,emo_sem_emo_sem,0.738709954690421,1,2,2,1,92980.6686803713,45,B
5,1,11/11/96,19,m,269,Carl brushed the teeth,Sensible,edin_semantics,emo_sem_emo_sem,0.809342815584387,1,1,1,1,92982.2211911732,72,B
5,1,11/11/96,19,m,270,Jon polished the coins,Sensible,edin_semantics,emo_sem_emo_sem,0.997175083262846,1,2,2,1,92983.9618482294,29,B
5,1,11/11/96,19,m,271,Matt drank the juice,Sensible,edin_semantics,emo_sem_emo_sem,0.879246034601238,1,1,1,1,92985.5848844504,60,B
5,1,11/11/96,19,m,272,Matt kicked the bike,Sensible,edin_semantics,emo_sem_emo_sem,1.11460797543987,1,2,2,1,92987.4431944138,39,B
5,1,11/11/96,19,m,273,The sugar weighed Liz,Non-sensible,edin_semantics,emo_sem_emo_sem,0.738182367495028,1,2,2,1,92988.9250563187,139,B
5,1,11/11/96,19,m,274,The stairs climbed Ben,Non-sensible,edin_semantics,emo_sem_emo_sem,1.06762994360179,2,2,2,1,92990.7363308411,143,B
5,1,11/11/96,19,m,275,Ryan entered the room,Sensible,edin_semantics,emo_sem_emo_sem,1.09145635875757,2,1,1,1,92992.5709959178,58,B
5,1,11/11/96,19,m,276,Mark washed the dishes,Sensible,edin_semantics,emo_sem_emo_sem,0.809099708523718,1,2,2,1,92994.1235092855,57,B
5,1,11/11/96,19,m,277,The cream whisked Tom,Non-sensible,edin_semantics,emo_sem_emo_sem,0.820220092049567,1,2,2,1,92995.6878001955,137,B
5,1,11/11/96,19,m,278,The ribbon cut Lucy,Non-sensible,edin_semantics,emo_sem_emo_sem,1.67986906858278,1,2,2,1,92998.1105803523,95,B
5,1,11/11/96,19,m,279,The curtains measured Rob,Non-sensible,edin_semantics,emo_sem_emo_sem,1.04367074967013,1,1,1,1,92999.8982696423,126,B
5,1,11/11/96,19,m,280,Jack mixed the fruits,Sensible,edin_semantics,emo_sem_emo_sem,0.949891403637594,1,1,1,1,93001.5918957475,8,B
5,1,11/11/96,19,m,281,Jon trimmed the bushes,Sensible,edin_semantics,emo_sem_emo_sem,1.40873062200262,1,1,1,1,93003.7441420181,32,B
5,1,11/11/96,19,m,282,Liz scrubbed the bowl,Sensible,edin_semantics,emo_sem_emo_sem,1.49121767767065,1,1,1,1,93005.9787778451,56,B
5,1,11/11/96,19,m,283,The bed sold Jay,Non-sensible,edin_semantics,emo_sem_emo_sem,1.94941801839741,2,2,2,1,93008.6720938124,113,B
5,1,11/11/96,19,m,284,The door kicked Max,Non-sensible,edin_semantics,emo_sem_emo_sem,1.23238532274263,1,1,1,1,93010.6479537314,114,B
5,1,11/11/96,19,m,285,The rope pulled Andy,Non-sensible,edin_semantics,emo_sem_emo_sem,1.02082157353288,2,1,1,1,93012.4121495153,148,B
5,1,11/11/96,19,m,286,The carrots grated Tom,Non-sensible,edin_semantics,emo_sem_emo_sem,1.34996863341075,1,1,1,1,93014.5056536821,140,B
5,1,11/11/96,19,m,287,Tim cleaned the floor,Sensible,edin_semantics,emo_sem_emo_sem,1.70313871084363,1,2,2,1,93016.9519478712,5,B
5,1,11/11/96,19,m,288,The perfume sniffed Tim,Non-sensible,edin_semantics,emo_sem_emo_sem,1.16072486953635,1,2,2,1,93018.8572567134,93,B
5,1,11/11/96,19,m,289,Jane punched the wall,Sensible,edin_semantics,emo_sem_emo_sem,0.855259579315316,1,1,1,1,93020.4567798643,50,B
5,1,11/11/96,19,m,290,Luke climbed the hill,Sensible,edin_semantics,emo_sem_emo_sem,2.48989951147814,1,1,1,1,93023.6911328147,68,B
5,1,11/11/96,19,m,291,The rope pulled Emma,Non-sensible,edin_semantics,emo_sem_emo_sem,1.39634916074283,2,1,1,1,93025.8316570279,120,B
5,1,11/11/96,19,m,292,The box labeled Ian,Non-sensible,edin_semantics,emo_sem_emo_sem,1.14983187768667,2,1,1,1,93027.725160425,136,B
5,1,11/11/96,19,m,293,The salt passed Leo,Non-sensible,edin_semantics,emo_sem_emo_sem,0.996737618857878,2,1,1,1,93029.4658113874,118,B
5,1,11/11/96,19,m,294,Liz sliced the tomato,Sensible,edin_semantics,emo_sem_emo_sem,1.7260594079271,1,2,2,1,93031.9356606611,3,B
5,1,11/11/96,19,m,295,Luke swallowed the pill,Sensible,edin_semantics,emo_sem_emo_sem,0.961467532702954,2,1,1,1,93033.6410152381,22,B
5,1,11/11/96,19,m,296,Sam tidied the room,Sensible,edin_semantics,emo_sem_emo_sem,1.69101478911762,1,1,1,1,93036.0756268185,2,B
5,1,11/11/96,19,m,297,Lara filed the papers,Sensible,edin_semantics,emo_sem_emo_sem,1.06774155475432,2,1,1,1,93037.8868230848,24,B
5,1,11/11/96,19,m,298,Will mashed the potatoes,Sensible,edin_semantics,emo_sem_emo_sem,0.949547269250616,1,1,1,1,93039.5804527179,28,B
5,1,11/11/96,19,m,299,The dress wore Kate,Non-sensible,edin_semantics,emo_sem_emo_sem,0.820999766510795,2,1,1,1,93041.1446733898,100,B
5,1,11/11/96,19,m,300,The candy sucked Sam,Non-sensible,edin_semantics,emo_sem_emo_sem,0.844095577631379,1,2,2,1,93042.7324597302,87,B
