subject_column,AssignedList_column,subject_dob_column,subject_age_column,subject_gender_column,trialnum_column,Stim_column,Type_column,Experiment_column,OrderGroup_column,ReactionTime_column,StimSide_column,StimPosition_column,Response_column,Valid_column,TrialEndSecs_column,PairID_column,List_column
50,2,7/3/89,27,m,1,The potatoes mashed Will,Non-sensible,edin_semantics,sem_emo_sem_emo,1.77801055042073,1,2,2,1,1660312.62845962,28,A
50,2,7/3/89,27,m,2,Fred served the dessert,Sensible,edin_semantics,sem_emo_sem_emo,1.3820003925357,2,1,1,1,1660314.75718417,145,A
50,2,7/3/89,27,m,3,Hugh kissed the rose,Sensible,edin_semantics,sem_emo_sem_emo,1.27663657884113,2,2,2,1,1660316.78011064,98,A
50,2,7/3/89,27,m,4,Erin described the church,Sensible,edin_semantics,sem_emo_sem_emo,0.959260646719486,1,1,1,1,1660318.48549889,117,A
50,2,7/3/89,27,m,5,Ian labeled the box,Sensible,edin_semantics,sem_emo_sem_emo,1.02000629901886,1,2,2,1,1660320.24965779,136,A
50,2,7/3/89,27,m,6,Max searched the internet,Sensible,edin_semantics,sem_emo_sem_emo,1.36180166061968,1,1,1,1,1660322.35490358,85,A
50,2,7/3/89,27,m,7,The lolly sucked Leah,Non-sensible,edin_semantics,sem_emo_sem_emo,1.10307514388114,1,2,2,1,1660324.20143215,12,A
50,2,7/3/89,27,m,8,The toffee chewed Ben,Non-sensible,edin_semantics,sem_emo_sem_emo,1.89053768338636,2,1,1,1,1660326.83592872,31,A
50,2,7/3/89,27,m,9,Kate hugged the pillow,Sensible,edin_semantics,sem_emo_sem_emo,1.5260964834597,1,2,2,1,1660329.10581539,86,A
50,2,7/3/89,27,m,10,The milk sniffed Phil,Non-sensible,edin_semantics,sem_emo_sem_emo,1.76110370596871,2,2,2,1,1660331.61094309,18,A
50,2,7/3/89,27,m,11,Jay painted the portrait,Sensible,edin_semantics,sem_emo_sem_emo,1.36186516354792,1,2,2,1,1660333.71620523,110,A
50,2,7/3/89,27,m,12,Rose built the shed,Sensible,edin_semantics,sem_emo_sem_emo,1.16189454169944,1,1,1,1,1660335.62149515,121,A
50,2,7/3/89,27,m,13,Zoe paid the debt,Sensible,edin_semantics,sem_emo_sem_emo,0.890756415901706,1,2,2,1,1660337.25630186,134,A
50,2,7/3/89,27,m,14,Liam sliced the onion,Sensible,edin_semantics,sem_emo_sem_emo,0.938496161485091,2,2,2,1,1660338.93813856,78,A
50,2,7/3/89,27,m,15,Alex wrote the report,Sensible,edin_semantics,sem_emo_sem_emo,1.20842484594323,1,1,1,1,1660340.89050401,149,A
50,2,7/3/89,27,m,16,The garden watered Jeff,Non-sensible,edin_semantics,sem_emo_sem_emo,1.1026229262352,2,2,2,1,1660342.73706273,54,A
50,2,7/3/89,27,m,17,Josh crushed the ice,Sensible,edin_semantics,sem_emo_sem_emo,1.90277546131983,1,1,1,1,1660345.38331503,81,A
50,2,7/3/89,27,m,18,Jack posted the gift,Sensible,edin_semantics,sem_emo_sem_emo,3.21940218750387,2,1,1,1,1660349.34678451,111,A
50,2,7/3/89,27,m,19,The lever pulled Hugh,Non-sensible,edin_semantics,sem_emo_sem_emo,2.31412028591149,2,1,1,1,1660352.40469691,45,A
50,2,7/3/89,27,m,20,The scarf knitted Tom,Non-sensible,edin_semantics,sem_emo_sem_emo,1.60834652557969,2,2,2,1,1660354.75700103,66,A
50,2,7/3/89,27,m,21,The bike kicked Matt,Non-sensible,edin_semantics,sem_emo_sem_emo,1.19662549463101,1,1,1,1,1660356.69752095,39,A
50,2,7/3/89,27,m,22,Tim sniffed the perfume,Sensible,edin_semantics,sem_emo_sem_emo,2.33807659335434,2,1,1,1,1660359.77903461,93,A
50,2,7/3/89,27,m,23,Jay sold the bed,Sensible,edin_semantics,sem_emo_sem_emo,6.47765243239701,2,1,1,1,1660367.00037396,113,A
50,2,7/3/89,27,m,24,Adam watched the opera,Sensible,edin_semantics,sem_emo_sem_emo,1.00835351739079,2,2,2,1,1660368.75275436,108,A
50,2,7/3/89,27,m,25,The number dialed Tom,Non-sensible,edin_semantics,sem_emo_sem_emo,1.60855499468744,1,1,1,1,1660371.10498119,63,A
50,2,7/3/89,27,m,26,Fred stored the rice,Sensible,edin_semantics,sem_emo_sem_emo,3.24354611709714,2,1,1,1,1660375.0920545,127,A
50,2,7/3/89,27,m,27,The plans cancelled Ian,Non-sensible,edin_semantics,sem_emo_sem_emo,1.72627108427696,2,1,1,1,1660377.56187459,7,A
50,2,7/3/89,27,m,28,Mike ate the steak,Sensible,edin_semantics,sem_emo_sem_emo,1.53750487486832,1,2,2,1,1660379.84352694,142,A
50,2,7/3/89,27,m,29,Andy pulled the rope,Sensible,edin_semantics,sem_emo_sem_emo,1.94973649526946,1,2,2,1,1660382.5368474,148,A
50,2,7/3/89,27,m,30,The cake iced Mary,Non-sensible,edin_semantics,sem_emo_sem_emo,1.11417275620624,1,2,2,1,1660384.39508552,44,A
50,2,7/3/89,27,m,31,The shirt ironed Josh,Non-sensible,edin_semantics,sem_emo_sem_emo,1.44382880139165,2,1,1,1,1660386.5826827,55,A
50,2,7/3/89,27,m,32,The parcel mailed Rob,Non-sensible,edin_semantics,sem_emo_sem_emo,1.31438552285545,1,2,2,1,1660388.64088919,14,A
50,2,7/3/89,27,m,33,The fruits mixed Jack,Non-sensible,edin_semantics,sem_emo_sem_emo,1.05573148932308,1,2,2,1,1660390.44035154,8,A
50,2,7/3/89,27,m,34,Rob measured the curtains,Sensible,edin_semantics,sem_emo_sem_emo,2.60819065500982,2,2,2,1,1660393.79232821,126,A
50,2,7/3/89,27,m,35,The jar labeled Liz,Non-sensible,edin_semantics,sem_emo_sem_emo,4.91315305349417,2,1,1,1,1660399.44939813,61,A
50,2,7/3/89,27,m,36,Ryan stroked the blanket,Sensible,edin_semantics,sem_emo_sem_emo,3.91364728566259,1,2,2,1,1660404.10684972,116,A
50,2,7/3/89,27,m,37,Tom grated the carrots,Sensible,edin_semantics,sem_emo_sem_emo,1.31425210251473,1,2,2,1,1660406.16505365,140,A
50,2,7/3/89,27,m,38,The pill swallowed Luke,Non-sensible,edin_semantics,sem_emo_sem_emo,1.8434862063732,2,2,2,1,1660408.75255776,22,A
50,2,7/3/89,27,m,39,Amy lifted the crate,Sensible,edin_semantics,sem_emo_sem_emo,1.23197993054055,1,2,2,1,1660410.72838496,144,A
50,2,7/3/89,27,m,40,Eve typed the message,Sensible,edin_semantics,sem_emo_sem_emo,2.01971091423184,2,2,2,1,1660413.49224784,124,A
50,2,7/3/89,27,m,41,The house built Kate,Non-sensible,edin_semantics,sem_emo_sem_emo,3.59571233578026,2,2,2,1,1660417.83212849,46,A
50,2,7/3/89,27,m,42,The bucket lent Max,Non-sensible,edin_semantics,sem_emo_sem_emo,1.63173579704016,1,1,1,1,1660420.20789469,19,A
50,2,7/3/89,27,m,43,Adam chewed the fat,Sensible,edin_semantics,sem_emo_sem_emo,8.42972570587881,2,2,2,1,1660429.38162162,106,A
50,2,7/3/89,27,m,44,Tom whisked the cream,Sensible,edin_semantics,sem_emo_sem_emo,4.0426223105751,2,1,1,1,1660434.16841193,137,A
50,2,7/3/89,27,m,45,The wall punched Jane,Non-sensible,edin_semantics,sem_emo_sem_emo,1.07857104367577,1,2,2,1,1660435.99138028,50,A
50,2,7/3/89,27,m,46,The lesson taught Eve,Non-sensible,edin_semantics,sem_emo_sem_emo,3.68987269932404,2,1,1,1,1660440.42534529,15,A
50,2,7/3/89,27,m,47,The papers filed Lara,Non-sensible,edin_semantics,sem_emo_sem_emo,1.07893281779252,1,2,2,1,1660442.24833193,24,A
50,2,7/3/89,27,m,48,The floor cleaned Tim,Non-sensible,edin_semantics,sem_emo_sem_emo,6.64226829796098,2,1,1,1,1660449.6343609,5,A
50,2,7/3/89,27,m,49,Joe entered the office,Sensible,edin_semantics,sem_emo_sem_emo,1.07915539853275,1,1,1,1,1660451.4573453,133,A
50,2,7/3/89,27,m,50,Erin punched the monitor,Sensible,edin_semantics,sem_emo_sem_emo,1.50217481376603,2,1,1,1,1660453.70375482,125,A
50,2,7/3/89,27,m,51,Ben climbed the stairs,Sensible,edin_semantics,sem_emo_sem_emo,1.23186126351357,1,1,1,1,1660455.67959806,143,A
50,2,7/3/89,27,m,52,The room searched Jen,Non-sensible,edin_semantics,sem_emo_sem_emo,7.55954102147371,2,2,2,1,1660463.9830056,10,A
50,2,7/3/89,27,m,53,Tim took the ticket,Sensible,edin_semantics,sem_emo_sem_emo,3.24277381924912,2,2,2,1,1660467.97005133,128,A
50,2,7/3/89,27,m,54,The room entered Ryan,Non-sensible,edin_semantics,sem_emo_sem_emo,10.5580018782057,2,2,2,1,1660479.27254192,58,A
50,2,7/3/89,27,m,55,Phil solved the problem,Sensible,edin_semantics,sem_emo_sem_emo,5.97197982808575,2,1,1,1,1660485.98818942,109,A
50,2,7/3/89,27,m,56,Sara jumped the hedge,Sensible,edin_semantics,sem_emo_sem_emo,2.59591310750693,2,2,2,1,1660489.32836482,92,A
50,2,7/3/89,27,m,57,The wine stored Leo,Non-sensible,edin_semantics,sem_emo_sem_emo,1.19690420175903,1,2,2,1,1660491.26892354,52,A
50,2,7/3/89,27,m,58,The cheese grated Andy,Non-sensible,edin_semantics,sem_emo_sem_emo,1.00897539686412,1,1,1,1,1660493.02141106,65,A
50,2,7/3/89,27,m,59,Liz weighed the sugar,Sensible,edin_semantics,sem_emo_sem_emo,1.59663665574044,1,1,1,1,1660495.36182251,139,A
50,2,7/3/89,27,m,60,Luke read the poster,Sensible,edin_semantics,sem_emo_sem_emo,3.01990270591341,2,1,1,1,1660499.12540892,79,A
50,2,7/3/89,27,m,61,Alex dusted the house,Sensible,edin_semantics,sem_emo_sem_emo,6.71327832737006,2,2,2,1,1660506.58202137,122,A
50,2,7/3/89,27,m,62,The paper cut Jon,Non-sensible,edin_semantics,sem_emo_sem_emo,9.25308373919688,2,2,2,1,1660516.5790069,20,A
50,2,7/3/89,27,m,63,Leo passed the salt,Sensible,edin_semantics,sem_emo_sem_emo,1.9258914780803,2,2,2,1,1660519.24879473,118,A
50,2,7/3/89,27,m,64,The money offered Matt,Non-sensible,edin_semantics,sem_emo_sem_emo,0.926709959981963,1,1,1,1,1660520.91888178,9,A
50,2,7/3/89,27,m,65,Joe iced the donut,Sensible,edin_semantics,sem_emo_sem_emo,1.12566261109896,1,1,1,1,1660522.78892118,119,A
50,2,7/3/89,27,m,66,Leo carried the wallet,Sensible,edin_semantics,sem_emo_sem_emo,1.43214458902366,1,2,2,1,1660524.96502594,150,A
50,2,7/3/89,27,m,67,The ball squeezed Josh,Non-sensible,edin_semantics,sem_emo_sem_emo,9.241658028448,2,1,1,1,1660534.94996292,1,A
50,2,7/3/89,27,m,68,The flour weighed Jen,Non-sensible,edin_semantics,sem_emo_sem_emo,1.44341763621196,1,2,2,1,1660537.1375338,64,A
50,2,7/3/89,27,m,69,The towels passed Phil,Non-sensible,edin_semantics,sem_emo_sem_emo,4.0430171189364,2,1,1,1,1660541.92436709,43,A
50,2,7/3/89,27,m,70,Tom offered the sweets,Sensible,edin_semantics,sem_emo_sem_emo,0.867590366629884,1,2,2,1,1660543.53563795,84,A
50,2,7/3/89,27,m,71,The bill paid Mike,Non-sensible,edin_semantics,sem_emo_sem_emo,1.20855762460269,1,1,1,1,1660545.48798448,59,A
50,2,7/3/89,27,m,72,The hill climbed Luke,Non-sensible,edin_semantics,sem_emo_sem_emo,1.16130633791909,1,2,2,1,1660547.39327729,68,A
50,2,7/3/89,27,m,73,The box lifted Kate,Non-sensible,edin_semantics,sem_emo_sem_emo,1.04401712911204,1,1,1,1,1660549.1810134,69,A
50,2,7/3/89,27,m,74,The garlic crushed Erin,Non-sensible,edin_semantics,sem_emo_sem_emo,3.13698055921122,2,2,2,1,1660553.06219179,6,A
50,2,7/3/89,27,m,75,The dishes washed Mark,Non-sensible,edin_semantics,sem_emo_sem_emo,3.49037738679908,1,1,1,1,1660557.29622049,57,A
50,2,7/3/89,27,m,76,The coins polished Jon,Non-sensible,edin_semantics,sem_emo_sem_emo,0.90268181078136,1,1,1,1,1660558.94275855,29,A
50,2,7/3/89,27,m,77,The room tidied Sam,Non-sensible,edin_semantics,sem_emo_sem_emo,1.10300586791709,2,2,2,1,1660560.78931567,2,A
50,2,7/3/89,27,m,78,Phil cancelled the party,Sensible,edin_semantics,sem_emo_sem_emo,1.73776061856188,1,2,2,1,1660563.27087481,82,A
50,2,7/3/89,27,m,79,Ian filed the report,Sensible,edin_semantics,sem_emo_sem_emo,12.2290161412675,2,1,1,1,1660576.24346048,99,A
50,2,7/3/89,27,m,80,Hugh dialed the hotline,Sensible,edin_semantics,sem_emo_sem_emo,2.09040022199042,2,2,2,1,1660579.07790907,138,A
50,2,7/3/89,27,m,81,The sheets counted Bill,Non-sensible,edin_semantics,sem_emo_sem_emo,1.54954188107513,2,2,2,1,1660581.3714169,48,A
50,2,7/3/89,27,m,82,John carried the kettle,Sensible,edin_semantics,sem_emo_sem_emo,1.27891915501095,1,1,1,1,1660583.39427537,105,A
50,2,7/3/89,27,m,83,Lucy wiped the desk,Sensible,edin_semantics,sem_emo_sem_emo,1.09083736594766,1,1,1,1,1660585.22899914,115,A
50,2,7/3/89,27,m,84,Luke fixed the radio,Sensible,edin_semantics,sem_emo_sem_emo,1.8669078706298,2,2,2,1,1660587.83999996,112,A
50,2,7/3/89,27,m,85,Ian pushed the button,Sensible,edin_semantics,sem_emo_sem_emo,0.973081506788731,1,1,1,1,1660589.55712695,101,A
50,2,7/3/89,27,m,86,Lucy cut the ribbon,Sensible,edin_semantics,sem_emo_sem_emo,1.43223342904821,1,1,2,0,1660591.73293568,95,A
50,2,7/3/89,27,m,87,The movie watched Ella,Non-sensible,edin_semantics,sem_emo_sem_emo,2.10252318158746,2,1,1,1,1660594.57914546,33,A
50,2,7/3/89,27,m,88,The spoon licked Will,Non-sensible,edin_semantics,sem_emo_sem_emo,1.3500552282203,1,1,1,1,1660596.67265636,21,A
50,2,7/3/89,27,m,89,Erin tidied the garage,Sensible,edin_semantics,sem_emo_sem_emo,7.46552370022982,2,1,1,1,1660604.88195806,77,A
50,2,7/3/89,27,m,90,Eve ironed the trousers,Sensible,edin_semantics,sem_emo_sem_emo,1.79609283991158,1,2,2,1,1660607.42236707,130,A
50,2,7/3/89,27,m,91,Josh taught the rules,Sensible,edin_semantics,sem_emo_sem_emo,1.2436898003798,1,2,2,1,1660609.40999651,90,A
50,2,7/3/89,27,m,92,Kate wore the dress,Sensible,edin_semantics,sem_emo_sem_emo,1.56133449729532,2,2,2,1,1660611.71520715,100,A
50,2,7/3/89,27,m,93,Sam sucked the candy,Sensible,edin_semantics,sem_emo_sem_emo,3.03147338260897,2,1,1,1,1660615.4905262,87,A
50,2,7/3/89,27,m,94,The herbs chopped Phil,Non-sensible,edin_semantics,sem_emo_sem_emo,1.38463319698349,2,1,1,1,1660617.61929949,27,A
50,2,7/3/89,27,m,95,The eggs whisked Dan,Non-sensible,edin_semantics,sem_emo_sem_emo,1.0793526424095,2,2,2,1,1660619.44228902,62,A
50,2,7/3/89,27,m,96,The fence jumped Jon,Non-sensible,edin_semantics,sem_emo_sem_emo,1.49086007289588,1,1,1,1,1660621.67692292,17,A
50,2,7/3/89,27,m,97,The fur stroked Rob,Non-sensible,edin_semantics,sem_emo_sem_emo,0.890617543365806,1,1,1,1,1660623.31170397,41,A
50,2,7/3/89,27,m,98,The book read Sean,Non-sensible,edin_semantics,sem_emo_sem_emo,1.16167003638111,2,2,2,1,1660625.2170436,4,A
50,2,7/3/89,27,m,99,The pen described John,Non-sensible,edin_semantics,sem_emo_sem_emo,1.43263785913587,1,2,2,1,1660627.3928735,42,A
50,2,7/3/89,27,m,100,The card posted Erin,Non-sensible,edin_semantics,sem_emo_sem_emo,1.24403682141565,2,2,2,1,1660629.3804946,36,A
50,2,7/3/89,27,m,101,Ben got the radio,Sensible,edin_semantics,sem_emo_sem_emo,1.23235902376473,1,2,2,1,1660631.35635035,88,A
50,2,7/3/89,27,m,102,Jack cleaned the bath,Sensible,edin_semantics,sem_emo_sem_emo,2.23221534024924,2,2,2,1,1660634.33194472,80,A
50,2,7/3/89,27,m,103,The tree hugged Amy,Non-sensible,edin_semantics,sem_emo_sem_emo,1.1029324226547,1,1,1,1,1660636.17844763,11,A
50,2,7/3/89,27,m,104,Tom visited the hospital,Sensible,edin_semantics,sem_emo_sem_emo,5.08981811231934,2,1,1,1,1660642.01203316,91,A
50,2,7/3/89,27,m,105,The kettle got Lily,Non-sensible,edin_semantics,sem_emo_sem_emo,1.29112935089506,1,1,1,1,1660644.04669612,13,A
50,2,7/3/89,27,m,106,The jumper wore Joe,Non-sensible,edin_semantics,sem_emo_sem_emo,3.57228457764722,2,1,1,1,1660648.36307012,25,A
50,2,7/3/89,27,m,107,The picture painted Ryan,Non-sensible,edin_semantics,sem_emo_sem_emo,1.36128658149391,1,1,1,1,1660650.46833643,35,A
50,2,7/3/89,27,m,108,Ian mailed the invite,Sensible,edin_semantics,sem_emo_sem_emo,1.83198191900738,1,1,1,1,1660653.04398955,89,A
50,2,7/3/89,27,m,109,The bowl scrubbed Liz,Non-sensible,edin_semantics,sem_emo_sem_emo,1.05568626732565,2,2,2,1,1660654.84345157,56,A
50,2,7/3/89,27,m,110,The mirror kissed Max,Non-sensible,edin_semantics,sem_emo_sem_emo,1.06768254213966,1,1,1,1,1660656.65466163,23,A
50,2,7/3/89,27,m,111,Fred chopped the carrots,Sensible,edin_semantics,sem_emo_sem_emo,2.99662247975357,2,2,2,1,1660660.39474042,102,A
50,2,7/3/89,27,m,112,Beth washed the pan,Sensible,edin_semantics,sem_emo_sem_emo,1.18469528877176,1,2,2,1,1660662.32353924,132,A
50,2,7/3/89,27,m,113,Ryan knitted the socks,Sensible,edin_semantics,sem_emo_sem_emo,1.09084217669442,1,1,1,1,1660664.15833998,141,A
50,2,7/3/89,27,m,114,The gun carried Ryan,Non-sensible,edin_semantics,sem_emo_sem_emo,1.0202599898912,1,1,1,1,1660665.92246938,75,A
50,2,7/3/89,27,m,115,Lucy counted the shoes,Sensible,edin_semantics,sem_emo_sem_emo,6.59518025862053,2,1,1,1,1660673.26145009,123,A
50,2,7/3/89,27,m,116,The dish served Kate,Non-sensible,edin_semantics,sem_emo_sem_emo,2.63155074068345,1,2,2,1,1660676.63694656,70,A
50,2,7/3/89,27,m,117,The tomato sliced Liz,Non-sensible,edin_semantics,sem_emo_sem_emo,2.79616660601459,2,1,1,1,1660680.17702812,3,A
50,2,7/3/89,27,m,118,Max kicked the door,Sensible,edin_semantics,sem_emo_sem_emo,1.13768775039352,2,2,2,1,1660682.05883608,114,A
50,2,7/3/89,27,m,119,The bushes trimmed Jon,Non-sensible,edin_semantics,sem_emo_sem_emo,2.31384606892243,2,2,2,1,1660685.11672089,32,A
50,2,7/3/89,27,m,120,Josh scrubbed the pot,Sensible,edin_semantics,sem_emo_sem_emo,3.39657270372845,2,1,1,1,1660689.25690835,131,A
50,2,7/3/89,27,m,121,The teeth brushed Carl,Non-sensible,edin_semantics,sem_emo_sem_emo,2.33744220598601,1,2,2,1,1660692.33808076,72,A
50,2,7/3/89,27,m,122,The juice drank Matt,Non-sensible,edin_semantics,sem_emo_sem_emo,1.30286840675399,2,2,2,1,1660694.38452736,60,A
50,2,7/3/89,27,m,123,Jay squeezed the lemon,Sensible,edin_semantics,sem_emo_sem_emo,2.40807089745067,2,2,2,1,1660697.53654014,76,A
50,2,7/3/89,27,m,124,The laptop fixed Jen,Non-sensible,edin_semantics,sem_emo_sem_emo,3.20720514119603,2,1,1,1,1660701.48830136,37,A
50,2,7/3/89,27,m,125,Jane licked the plate,Sensible,edin_semantics,sem_emo_sem_emo,1.13752835174091,1,2,2,1,1660703.37008141,96,A
50,2,7/3/89,27,m,126,Emma pulled the rope,Sensible,edin_semantics,sem_emo_sem_emo,0.830867090262473,1,2,2,1,1660704.9462634,120,A
50,2,7/3/89,27,m,127,The folder carried Dan,Non-sensible,edin_semantics,sem_emo_sem_emo,1.3136834630277,1,2,2,1,1660707.00431563,30,A
50,2,7/3/89,27,m,128,The handle pulled Tim,Non-sensible,edin_semantics,sem_emo_sem_emo,0.972871434176341,1,1,1,1,1660708.72140734,73,A
50,2,7/3/89,27,m,129,Jack drank the beer,Sensible,edin_semantics,sem_emo_sem_emo,2.80808526580222,2,1,1,1,1660712.27332737,135,A
50,2,7/3/89,27,m,130,Bill trimmed the hair,Sensible,edin_semantics,sem_emo_sem_emo,5.8306496408768,2,1,1,1,1660718.84778965,107,A
50,2,7/3/89,27,m,131,The sofa sold Carl,Non-sensible,edin_semantics,sem_emo_sem_emo,1.76120761991479,1,2,2,1,1660721.35295519,38,A
50,2,7/3/89,27,m,132,Ian dented the bowl,Sensible,edin_semantics,sem_emo_sem_emo,2.09077450446785,1,2,2,1,1660724.18736113,146,A
50,2,7/3/89,27,m,133,Dan brushed the hair,Sensible,edin_semantics,sem_emo_sem_emo,0.937529185786843,2,1,1,1,1660725.86924978,147,A
50,2,7/3/89,27,m,134,The thread measured Amy,Non-sensible,edin_semantics,sem_emo_sem_emo,1.51420444343239,1,1,1,1,1660728.12736821,51,A
50,2,7/3/89,27,m,135,Ella mashed the turnip,Sensible,edin_semantics,sem_emo_sem_emo,1.43199352896772,2,1,1,1,1660730.30318047,103,A
50,2,7/3/89,27,m,136,The story wrote Ewan,Non-sensible,edin_semantics,sem_emo_sem_emo,1.20921606640331,1,2,2,1,1660732.25557446,74,A
50,2,7/3/89,27,m,137,The museum visited Mary,Non-sensible,edin_semantics,sem_emo_sem_emo,1.17421795218252,1,2,2,1,1660734.17263872,16,A
50,2,7/3/89,27,m,138,The photo took Beth,Non-sensible,edin_semantics,sem_emo_sem_emo,1.30284852185287,1,1,1,1,1660736.21904747,53,A
50,2,7/3/89,27,m,139,Liam mixed the nuts,Sensible,edin_semantics,sem_emo_sem_emo,1.06825887877494,1,1,1,1,1660738.03029794,83,A
50,2,7/3/89,27,m,140,Fred lent the car,Sensible,edin_semantics,sem_emo_sem_emo,1.25615849811584,2,2,2,1,1660740.0296937,94,A
50,2,7/3/89,27,m,141,The shelf dusted Jake,Non-sensible,edin_semantics,sem_emo_sem_emo,2.02044215961359,2,1,1,1,1660742.79357421,47,A
50,2,7/3/89,27,m,142,The puzzle solved Joe,Non-sensible,edin_semantics,sem_emo_sem_emo,0.843973382608965,1,2,2,1,1660744.38131244,34,A
50,2,7/3/89,27,m,143,The ham ate Tim,Non-sensible,edin_semantics,sem_emo_sem_emo,1.14994605467655,2,1,1,1,1660746.27486235,67,A
50,2,7/3/89,27,m,144,Owen swallowed the gum,Sensible,edin_semantics,sem_emo_sem_emo,1.47958157374524,1,1,1,1,1660748.49773025,97,A
50,2,7/3/89,27,m,145,The table wiped Beth,Non-sensible,edin_semantics,sem_emo_sem_emo,1.18523506331258,1,2,2,1,1660750.42657558,40,A
50,2,7/3/89,27,m,146,Luke watered the plants,Sensible,edin_semantics,sem_emo_sem_emo,1.1966453792993,1,1,1,1,1660752.36717696,129,A
50,2,7/3/89,27,m,147,Anna polished the trophy,Sensible,edin_semantics,sem_emo_sem_emo,1.23222175473347,1,2,2,1,1660754.34308402,104,A
50,2,7/3/89,27,m,148,The trolley pushed Matt,Non-sensible,edin_semantics,sem_emo_sem_emo,1.15052014659159,2,2,2,1,1660756.23661949,26,A
50,2,7/3/89,27,m,149,The letter typed Phil,Non-sensible,edin_semantics,sem_emo_sem_emo,0.985428009415045,2,1,1,1,1660757.96547976,49,A
50,2,7/3/89,27,m,150,The lorry dented Lily,Non-sensible,edin_semantics,sem_emo_sem_emo,1.46739607327618,1,1,1,1,1660760.17661086,71,A
50,2,7/3/89,27,m,151,Phil typed the letter,Sensible,edin_semantics,sem_emo_sem_emo,4.59989005676471,1,1,1,1,1660779.06506449,49,B
50,2,7/3/89,27,m,152,Tim cleaned the floor,Sensible,edin_semantics,sem_emo_sem_emo,1.11144469748251,1,1,1,1,1660780.92333853,5,B
50,2,7/3/89,27,m,153,Max lent the bucket,Sensible,edin_semantics,sem_emo_sem_emo,1.39625486847945,2,1,1,1,1660783.06386627,19,B
50,2,7/3/89,27,m,154,The house dusted Alex,Non-sensible,edin_semantics,sem_emo_sem_emo,1.78472421783954,1,2,2,1,1660785.59249902,122,B
50,2,7/3/89,27,m,155,Amy measured the thread,Sensible,edin_semantics,sem_emo_sem_emo,1.65509492065758,1,1,1,1,1660787.99184276,51,B
50,2,7/3/89,27,m,156,Kate served the dish,Sensible,edin_semantics,sem_emo_sem_emo,1.18380656884983,1,2,2,1,1660789.92064094,70,B
50,2,7/3/89,27,m,157,Phil sniffed the milk,Sensible,edin_semantics,sem_emo_sem_emo,1.65496663213708,1,2,1,0,1660792.3198952,18,B
50,2,7/3/89,27,m,158,The nuts mixed Liam,Non-sensible,edin_semantics,sem_emo_sem_emo,1.44281435851008,2,1,1,1,1660794.50748468,83,B
50,2,7/3/89,27,m,159,The steak ate Mike,Non-sensible,edin_semantics,sem_emo_sem_emo,1.03161802818067,2,2,2,1,1660796.2834083,142,B
50,2,7/3/89,27,m,160,The sugar weighed Liz,Non-sensible,edin_semantics,sem_emo_sem_emo,1.41929872287437,1,1,1,1,1660798.44747188,139,B
50,2,7/3/89,27,m,161,Mike paid the bill,Sensible,edin_semantics,sem_emo_sem_emo,1.05486008827575,1,1,1,1,1660800.24694448,59,B
50,2,7/3/89,27,m,162,Ella watched the movie,Sensible,edin_semantics,sem_emo_sem_emo,1.67801978741772,2,1,1,1,1660802.66974004,33,B
50,2,7/3/89,27,m,163,Jen weighed the flour,Sensible,edin_semantics,sem_emo_sem_emo,1.39587513403967,2,2,2,1,1660804.81030402,64,B
50,2,7/3/89,27,m,164,Jake dusted the shelf,Sensible,edin_semantics,sem_emo_sem_emo,1.33734598965384,2,1,1,1,1660806.89199568,47,B
50,2,7/3/89,27,m,165,The salt passed Leo,Non-sensible,edin_semantics,sem_emo_sem_emo,1.2195413808804,1,2,2,1,1660808.85611077,118,B
50,2,7/3/89,27,m,166,The message typed Eve,Non-sensible,edin_semantics,sem_emo_sem_emo,1.32561719696969,1,2,2,1,1660810.92608744,124,B
50,2,7/3/89,27,m,167,The pillow hugged Kate,Non-sensible,edin_semantics,sem_emo_sem_emo,0.996149735990912,1,2,2,1,1660812.66675219,86,B
50,2,7/3/89,27,m,168,Sean read the book,Sensible,edin_semantics,sem_emo_sem_emo,1.29045775975101,1,2,2,1,1660814.70141483,4,B
50,2,7/3/89,27,m,169,Luke climbed the hill,Sensible,edin_semantics,sem_emo_sem_emo,1.29034197912551,1,2,2,1,1660816.73612366,68,B
50,2,7/3/89,27,m,170,Lily got the kettle,Sensible,edin_semantics,sem_emo_sem_emo,1.21934157120995,2,1,1,1,1660818.7002349,13,B
50,2,7/3/89,27,m,171,The report filed Ian,Non-sensible,edin_semantics,sem_emo_sem_emo,1.46665680990554,1,1,1,1,1660820.91134001,99,B
50,2,7/3/89,27,m,172,The box labeled Ian,Non-sensible,edin_semantics,sem_emo_sem_emo,1.23093245341443,1,2,2,1,1660822.8872009,136,B
50,2,7/3/89,27,m,173,Leo stored the wine,Sensible,edin_semantics,sem_emo_sem_emo,0.960849181283265,1,2,2,1,1660824.59257439,52,B
50,2,7/3/89,27,m,174,Carl sold the sofa,Sensible,edin_semantics,sem_emo_sem_emo,1.03175914566964,1,2,2,1,1660826.36852238,38,B
50,2,7/3/89,27,m,175,The stairs climbed Ben,Non-sensible,edin_semantics,sem_emo_sem_emo,0.91376434918493,1,1,1,1,1660828.02687488,143,B
50,2,7/3/89,27,m,176,Beth took the photo,Sensible,edin_semantics,sem_emo_sem_emo,1.21960424212739,1,1,1,1,1660829.99095629,53,B
50,2,7/3/89,27,m,177,The hair trimmed Bill,Non-sensible,edin_semantics,sem_emo_sem_emo,1.00765145756304,1,1,1,1,1660831.74342072,107,B
50,2,7/3/89,27,m,178,The monitor punched Erin,Non-sensible,edin_semantics,sem_emo_sem_emo,1.12603368610144,2,1,1,1,1660833.61341425,125,B
50,2,7/3/89,27,m,179,The problem solved Phil,Non-sensible,edin_semantics,sem_emo_sem_emo,1.03232778515667,2,1,1,1,1660835.38935165,109,B
50,2,7/3/89,27,m,180,Mary visited the museum,Sensible,edin_semantics,sem_emo_sem_emo,1.04400109313428,1,2,2,1,1660837.17707879,16,B
50,2,7/3/89,27,m,181,Ryan painted the picture,Sensible,edin_semantics,sem_emo_sem_emo,2.66678105737083,2,1,1,1,1660840.58781841,35,B
50,2,7/3/89,27,m,182,Dan whisked the eggs,Sensible,edin_semantics,sem_emo_sem_emo,1.12522258097306,1,2,2,1,1660842.45781163,62,B
50,2,7/3/89,27,m,183,The gift posted Jack,Non-sensible,edin_semantics,sem_emo_sem_emo,1.10172041528858,1,1,1,1,1660844.30433699,111,B
50,2,7/3/89,27,m,184,Erin posted the card,Sensible,edin_semantics,sem_emo_sem_emo,1.40742400172167,1,2,2,1,1660846.45666857,36,B
50,2,7/3/89,27,m,185,Will licked the spoon,Sensible,edin_semantics,sem_emo_sem_emo,1.74881974398158,1,1,1,1,1660848.95002258,21,B
50,2,7/3/89,27,m,186,The socks knitted Ryan,Non-sensible,edin_semantics,sem_emo_sem_emo,1.50153978494927,1,1,1,1,1660851.19637661,141,B
50,2,7/3/89,27,m,187,Eve taught the lesson,Sensible,edin_semantics,sem_emo_sem_emo,3.21909365337342,2,1,1,1,1660855.15990318,15,B
50,2,7/3/89,27,m,188,The hair brushed Dan,Non-sensible,edin_semantics,sem_emo_sem_emo,1.70115280221216,2,1,1,1,1660857.60622399,147,B
50,2,7/3/89,27,m,189,The carrots grated Tom,Non-sensible,edin_semantics,sem_emo_sem_emo,1.94892538967542,2,2,2,1,1660860.29953483,140,B
50,2,7/3/89,27,m,190,The ticket took Tim,Non-sensible,edin_semantics,sem_emo_sem_emo,1.86603967705742,2,2,2,1,1660862.91055713,128,B
50,2,7/3/89,27,m,191,The garage tidied Erin,Non-sensible,edin_semantics,sem_emo_sem_emo,1.17240876099095,2,1,1,1,1660864.82759028,77,B
50,2,7/3/89,27,m,192,The carrots chopped Fred,Non-sensible,edin_semantics,sem_emo_sem_emo,0.865978098474443,1,2,2,1,1660866.43886499,102,B
50,2,7/3/89,27,m,193,The gum swallowed Owen,Non-sensible,edin_semantics,sem_emo_sem_emo,0.901152930455282,2,1,1,1,1660868.08544924,97,B
50,2,7/3/89,27,m,194,The debt paid Zoe,Non-sensible,edin_semantics,sem_emo_sem_emo,0.830809360602871,1,2,2,1,1660869.6614234,134,B
50,2,7/3/89,27,m,195,The onion sliced Liam,Non-sensible,edin_semantics,sem_emo_sem_emo,1.21964272903278,1,2,2,1,1660871.62554972,78,B
50,2,7/3/89,27,m,196,The cream whisked Tom,Non-sensible,edin_semantics,sem_emo_sem_emo,1.09015871863812,1,1,1,1,1660873.4604037,137,B
50,2,7/3/89,27,m,197,The internet searched Max,Non-sensible,edin_semantics,sem_emo_sem_emo,1.27822735835798,1,1,1,1,1660875.48322369,85,B
50,2,7/3/89,27,m,198,The turnip mashed Ella,Non-sensible,edin_semantics,sem_emo_sem_emo,1.26632890384644,1,1,1,1,1660877.49438064,103,B
50,2,7/3/89,27,m,199,The pan washed Beth,Non-sensible,edin_semantics,sem_emo_sem_emo,1.10221496829763,2,2,2,1,1660879.34087681,132,B
50,2,7/3/89,27,m,200,The bath cleaned Jack,Non-sensible,edin_semantics,sem_emo_sem_emo,1.34908280009404,2,2,2,1,1660881.43438868,80,B
50,2,7/3/89,27,m,201,Jen searched the room,Sensible,edin_semantics,sem_emo_sem_emo,1.44279415300116,2,2,2,1,1660883.62197656,10,B
50,2,7/3/89,27,m,202,The sweets offered Tom,Non-sensible,edin_semantics,sem_emo_sem_emo,2.66636443976313,2,2,2,1,1660887.03272965,84,B
50,2,7/3/89,27,m,203,Kate built the house,Sensible,edin_semantics,sem_emo_sem_emo,1.27849804749712,1,2,2,1,1660889.05562309,46,B
50,2,7/3/89,27,m,204,Matt pushed the trolley,Sensible,edin_semantics,sem_emo_sem_emo,2.12547370605171,2,2,2,1,1660891.92535908,26,B
50,2,7/3/89,27,m,205,The desk wiped Lucy,Non-sensible,edin_semantics,sem_emo_sem_emo,1.4308264227584,1,1,1,1,1660894.10120951,115,B
50,2,7/3/89,27,m,206,The plate licked Jane,Non-sensible,edin_semantics,sem_emo_sem_emo,1.03155292174779,1,2,2,1,1660895.87713825,96,B
50,2,7/3/89,27,m,207,Rob stroked the fur,Sensible,edin_semantics,sem_emo_sem_emo,1.008149538422,2,1,1,1,1660897.62955713,41,B
50,2,7/3/89,27,m,208,Liz scrubbed the bowl,Sensible,edin_semantics,sem_emo_sem_emo,0.984417094616219,1,2,2,1,1660899.35841837,56,B
50,2,7/3/89,27,m,209,Bill counted the sheets,Sensible,edin_semantics,sem_emo_sem_emo,0.901843123370782,2,2,2,1,1660901.00498851,48,B
50,2,7/3/89,27,m,210,The pot scrubbed Josh,Non-sensible,edin_semantics,sem_emo_sem_emo,0.878401574445888,1,1,1,1,1660902.62809208,131,B
50,2,7/3/89,27,m,211,The blanket stroked Ryan,Non-sensible,edin_semantics,sem_emo_sem_emo,0.689960576826707,2,2,2,1,1660904.0629086,116,B
50,2,7/3/89,27,m,212,The trousers ironed Eve,Non-sensible,edin_semantics,sem_emo_sem_emo,1.0787144061178,1,2,2,1,1660905.88587439,130,B
50,2,7/3/89,27,m,213,Phil passed the towels,Sensible,edin_semantics,sem_emo_sem_emo,1.13727947184816,2,1,1,1,1660907.76767946,43,B
50,2,7/3/89,27,m,214,The rules taught Josh,Non-sensible,edin_semantics,sem_emo_sem_emo,1.16082236892544,2,2,2,1,1660909.67300691,90,B
50,2,7/3/89,27,m,215,Jeff watered the garden,Sensible,edin_semantics,sem_emo_sem_emo,1.7018494096119,2,2,2,1,1660912.11933285,54,B
50,2,7/3/89,27,m,216,Ryan carried the gun,Sensible,edin_semantics,sem_emo_sem_emo,1.1140919344034,2,1,1,1,1660913.97761876,75,B
50,2,7/3/89,27,m,217,The office entered Joe,Non-sensible,edin_semantics,sem_emo_sem_emo,1.8778518573381,2,1,1,1,1660916.60033297,133,B
50,2,7/3/89,27,m,218,Amy hugged the tree,Sensible,edin_semantics,sem_emo_sem_emo,1.14895342104137,1,1,1,1,1660918.49385369,11,B
50,2,7/3/89,27,m,219,The candy sucked Sam,Non-sensible,edin_semantics,sem_emo_sem_emo,1.34880890371278,2,1,1,1,1660920.58739827,87,B
50,2,7/3/89,27,m,220,Tom dialed the number,Sensible,edin_semantics,sem_emo_sem_emo,1.30190624156967,1,1,1,1,1660922.63380124,63,B
50,2,7/3/89,27,m,221,The radio got Ben,Non-sensible,edin_semantics,sem_emo_sem_emo,1.59616327029653,1,2,2,1,1660924.97426786,88,B
50,2,7/3/89,27,m,222,Matt offered the money,Sensible,edin_semantics,sem_emo_sem_emo,4.45382826239802,2,1,1,1,1660930.17273461,9,B
50,2,7/3/89,27,m,223,Ian cancelled the plans,Sensible,edin_semantics,sem_emo_sem_emo,1.52463367162272,2,1,1,1,1660932.44267933,7,B
50,2,7/3/89,27,m,224,Liz sliced the tomato,Sensible,edin_semantics,sem_emo_sem_emo,1.76029837387614,2,1,1,1,1660934.94777207,3,B
50,2,7/3/89,27,m,225,The beer drank Jack,Non-sensible,edin_semantics,sem_emo_sem_emo,1.64310955093242,1,1,1,1,1660937.33530973,135,B
50,2,7/3/89,27,m,226,The portrait painted Jay,Non-sensible,edin_semantics,sem_emo_sem_emo,0.949164006859064,2,2,2,1,1660939.02892685,110,B
50,2,7/3/89,27,m,227,The dessert served Fred,Non-sensible,edin_semantics,sem_emo_sem_emo,0.984014588873833,2,1,1,1,1660940.75778263,145,B
50,2,7/3/89,27,m,228,Mark washed the dishes,Sensible,edin_semantics,sem_emo_sem_emo,1.2081827011425,2,1,1,1,1660942.71016091,57,B
50,2,7/3/89,27,m,229,Ryan entered the room,Sensible,edin_semantics,sem_emo_sem_emo,1.05505252140574,1,2,2,1,1660944.50961139,58,B
50,2,7/3/89,27,m,230,Luke swallowed the pill,Sensible,edin_semantics,sem_emo_sem_emo,2.33693065494299,1,2,2,1,1660947.59104776,22,B
50,2,7/3/89,27,m,231,Joe wore the jumper,Sensible,edin_semantics,sem_emo_sem_emo,1.44255842268467,1,1,1,1,1660949.77870363,25,B
50,2,7/3/89,27,m,232,Max kissed the mirror,Sensible,edin_semantics,sem_emo_sem_emo,3.54859446920455,2,1,1,1,1660954.07144236,23,B
50,2,7/3/89,27,m,233,The kettle carried John,Non-sensible,edin_semantics,sem_emo_sem_emo,1.32557935174555,2,1,1,1,1660956.14143218,105,B
50,2,7/3/89,27,m,234,The hedge jumped Sara,Non-sensible,edin_semantics,sem_emo_sem_emo,1.20802618889138,2,2,2,1,1660958.09380019,92,B
50,2,7/3/89,27,m,235,Will mashed the potatoes,Sensible,edin_semantics,sem_emo_sem_emo,1.0081585184671,2,2,2,1,1660959.8462024,28,B
50,2,7/3/89,27,m,236,Erin crushed the garlic,Sensible,edin_semantics,sem_emo_sem_emo,0.9495912080165,2,2,2,1,1660961.53982882,6,B
50,2,7/3/89,27,m,237,The ice crushed Josh,Non-sensible,edin_semantics,sem_emo_sem_emo,0.972857963992283,2,1,1,1,1660963.2569433,81,B
50,2,7/3/89,27,m,238,Beth wiped the table,Sensible,edin_semantics,sem_emo_sem_emo,0.937747917836532,1,2,2,1,1660964.93879924,40,B
50,2,7/3/89,27,m,239,Lara filed the papers,Sensible,edin_semantics,sem_emo_sem_emo,2.03155837394297,2,2,2,1,1660967.71446853,24,B
50,2,7/3/89,27,m,240,Jen fixed the laptop,Sensible,edin_semantics,sem_emo_sem_emo,1.11385780735873,1,1,1,1,1660969.57267586,37,B
50,2,7/3/89,27,m,241,The button pushed Ian,Non-sensible,edin_semantics,sem_emo_sem_emo,1.54910826543346,2,1,1,1,1660971.86612659,101,B
50,2,7/3/89,27,m,242,The dress wore Kate,Non-sensible,edin_semantics,sem_emo_sem_emo,2.04314925614744,2,2,2,1,1660974.65351729,100,B
50,2,7/3/89,27,m,243,Jon trimmed the bushes,Sensible,edin_semantics,sem_emo_sem_emo,1.44300262234174,1,2,2,1,1660976.84112056,32,B
50,2,7/3/89,27,m,244,The rope pulled Emma,Non-sensible,edin_semantics,sem_emo_sem_emo,1.03127678041346,1,2,2,1,1660978.61702141,120,B
50,2,7/3/89,27,m,245,The poster read Luke,Non-sensible,edin_semantics,sem_emo_sem_emo,1.58423114032485,2,1,1,1,1660980.94578873,79,B
50,2,7/3/89,27,m,246,The fat chewed Adam,Non-sensible,edin_semantics,sem_emo_sem_emo,1.59593652025796,2,2,2,1,1660983.28621429,106,B
50,2,7/3/89,27,m,247,Josh squeezed the ball,Sensible,edin_semantics,sem_emo_sem_emo,0.87833486427553,1,1,1,1,1660984.90926943,1,B
50,2,7/3/89,27,m,248,The lemon squeezed Jay,Non-sensible,edin_semantics,sem_emo_sem_emo,1.5371665135026,2,2,2,1,1660987.19094038,76,B
50,2,7/3/89,27,m,249,The radio fixed Luke,Non-sensible,edin_semantics,sem_emo_sem_emo,1.4423663103953,1,2,2,1,1660989.37850902,112,B
50,2,7/3/89,27,m,250,The invite mailed Ian,Non-sensible,edin_semantics,sem_emo_sem_emo,1.33673148648813,2,1,1,1,1660991.46028182,89,B
50,2,7/3/89,27,m,251,Jon cut the paper,Sensible,edin_semantics,sem_emo_sem_emo,2.07814640807919,1,2,2,1,1660994.28291439,20,B
50,2,7/3/89,27,m,252,Ben chewed the toffee,Sensible,edin_semantics,sem_emo_sem_emo,0.996239858679473,1,1,1,1,1660996.02357433,31,B
50,2,7/3/89,27,m,253,Liz labeled the jar,Sensible,edin_semantics,sem_emo_sem_emo,2.08977930503897,2,1,1,1,1660998.85804858,61,B
50,2,7/3/89,27,m,254,The plants watered Luke,Non-sensible,edin_semantics,sem_emo_sem_emo,0.855164325097576,1,1,1,1,1661000.45755986,129,B
50,2,7/3/89,27,m,255,Hugh pulled the lever,Sensible,edin_semantics,sem_emo_sem_emo,1.97208694904111,2,1,1,1,1661003.17443861,45,B
50,2,7/3/89,27,m,256,Matt drank the juice,Sensible,edin_semantics,sem_emo_sem_emo,1.10154113196768,1,2,2,1,1661005.02089855,60,B
50,2,7/3/89,27,m,257,The crate lifted Amy,Non-sensible,edin_semantics,sem_emo_sem_emo,1.52544638025574,2,2,2,1,1661007.29080638,144,B
50,2,7/3/89,27,m,258,Carl brushed the teeth,Sensible,edin_semantics,sem_emo_sem_emo,1.5837811678648,1,2,2,1,1661009.61952977,72,B
50,2,7/3/89,27,m,259,The trophy polished Anna,Non-sensible,edin_semantics,sem_emo_sem_emo,1.2551693925634,2,2,2,1,1661011.61892778,104,B
50,2,7/3/89,27,m,260,Tim ate the ham,Sensible,edin_semantics,sem_emo_sem_emo,1.06659337109886,1,1,1,1,1661013.43012116,67,B
50,2,7/3/89,27,m,261,Rob mailed the parcel,Sensible,edin_semantics,sem_emo_sem_emo,1.34893815452233,2,2,2,1,1661015.52361827,14,B
50,2,7/3/89,27,m,262,The perfume sniffed Tim,Non-sensible,edin_semantics,sem_emo_sem_emo,1.19635801273398,1,1,1,1,1661017.46424242,93,B
50,2,7/3/89,27,m,263,Matt kicked the bike,Sensible,edin_semantics,sem_emo_sem_emo,4.51272238860838,2,1,1,1,1661022.72147213,39,B
50,2,7/3/89,27,m,264,The rice stored Fred,Non-sensible,edin_semantics,sem_emo_sem_emo,1.27862152527086,1,1,1,1,1661024.74445504,127,B
50,2,7/3/89,27,m,265,The ribbon cut Lucy,Non-sensible,edin_semantics,sem_emo_sem_emo,1.31390957185067,2,1,1,1,1661026.80261536,95,B
50,2,7/3/89,27,m,266,Joe solved the puzzle,Sensible,edin_semantics,sem_emo_sem_emo,2.71329789166339,2,2,2,1,1661030.26037823,34,B
50,2,7/3/89,27,m,267,The bed sold Jay,Non-sensible,edin_semantics,sem_emo_sem_emo,1.63160782912746,1,1,1,1,1661032.63612808,113,B
50,2,7/3/89,27,m,268,Leah sucked the lolly,Sensible,edin_semantics,sem_emo_sem_emo,3.3015136779286,2,2,2,1,1661036.6819993,12,B
50,2,7/3/89,27,m,269,The rose kissed Hugh,Non-sensible,edin_semantics,sem_emo_sem_emo,1.31389417732134,2,2,2,1,1661038.74024236,98,B
50,2,7/3/89,27,m,270,Josh ironed the shirt,Sensible,edin_semantics,sem_emo_sem_emo,2.9369980704505,2,1,1,1,1661042.42144499,55,B
50,2,7/3/89,27,m,271,Sam tidied the room,Sensible,edin_semantics,sem_emo_sem_emo,2.2665684830863,2,2,2,1,1661045.43232997,2,B
50,2,7/3/89,27,m,272,The bowl dented Ian,Non-sensible,edin_semantics,sem_emo_sem_emo,1.52538255671971,2,2,2,1,1661047.70225288,146,B
50,2,7/3/89,27,m,273,Tim pulled the handle,Sensible,edin_semantics,sem_emo_sem_emo,1.01951110456139,1,1,1,1,1661049.46644161,73,B
50,2,7/3/89,27,m,274,The report wrote Alex,Non-sensible,edin_semantics,sem_emo_sem_emo,2.19556198152713,2,1,1,1,1661052.40671809,149,B
50,2,7/3/89,27,m,275,The donut iced Joe,Non-sensible,edin_semantics,sem_emo_sem_emo,1.59598655276932,2,1,1,1,1661054.74716354,119,B
50,2,7/3/89,27,m,276,Andy grated the cheese,Sensible,edin_semantics,sem_emo_sem_emo,1.98409765586257,2,1,1,1,1661057.47577493,65,B
50,2,7/3/89,27,m,277,Ewan wrote the story,Sensible,edin_semantics,sem_emo_sem_emo,3.41882822406478,1,2,2,1,1661061.6392641,74,B
50,2,7/3/89,27,m,278,The party cancelled Phil,Non-sensible,edin_semantics,sem_emo_sem_emo,2.00724927266128,1,2,2,1,1661064.39134558,82,B
50,2,7/3/89,27,m,279,Jack mixed the fruits,Sensible,edin_semantics,sem_emo_sem_emo,0.948594405082986,1,2,2,1,1661066.08493577,8,B
50,2,7/3/89,27,m,280,The wallet carried Leo,Non-sensible,edin_semantics,sem_emo_sem_emo,1.43137421552092,1,2,2,1,1661068.26076438,150,B
50,2,7/3/89,27,m,281,Jon jumped the fence,Sensible,edin_semantics,sem_emo_sem_emo,0.890330818016082,2,1,1,1,1661069.89556243,17,B
50,2,7/3/89,27,m,282,The opera watched Adam,Non-sensible,edin_semantics,sem_emo_sem_emo,1.40764594101347,2,2,2,1,1661072.04790235,108,B
50,2,7/3/89,27,m,283,The rope pulled Andy,Non-sensible,edin_semantics,sem_emo_sem_emo,2.44280794425868,2,2,2,1,1661075.23517368,148,B
50,2,7/3/89,27,m,284,The car lent Fred,Non-sensible,edin_semantics,sem_emo_sem_emo,2.72517293319106,1,2,2,1,1661078.70469132,94,B
50,2,7/3/89,27,m,285,Mary iced the cake,Sensible,edin_semantics,sem_emo_sem_emo,2.1134366998449,2,2,2,1,1661081.56268923,44,B
50,2,7/3/89,27,m,286,Dan carried the folder,Sensible,edin_semantics,sem_emo_sem_emo,4.05419491161592,2,2,2,1,1661086.36123655,30,B
50,2,7/3/89,27,m,287,The shoes counted Lucy,Non-sensible,edin_semantics,sem_emo_sem_emo,0.854755725478753,1,1,1,1,1661087.96077413,123,B
50,2,7/3/89,27,m,288,Tom knitted the scarf,Sensible,edin_semantics,sem_emo_sem_emo,1.04339717421681,1,2,2,1,1661089.74844546,66,B
50,2,7/3/89,27,m,289,Jon polished the coins,Sensible,edin_semantics,sem_emo_sem_emo,1.03138005267829,1,1,1,1,1661091.52442103,29,B
50,2,7/3/89,27,m,290,Lily dented the lorry,Sensible,edin_semantics,sem_emo_sem_emo,1.8193297686521,2,1,1,1,1661094.08832259,71,B
50,2,7/3/89,27,m,291,The curtains measured Rob,Non-sensible,edin_semantics,sem_emo_sem_emo,1.53663571923971,1,2,2,1,1661096.37000829,126,B
50,2,7/3/89,27,m,292,The door kicked Max,Non-sensible,edin_semantics,sem_emo_sem_emo,1.59576365118846,2,2,2,1,1661098.71046528,114,B
50,2,7/3/89,27,m,293,John described the pen,Sensible,edin_semantics,sem_emo_sem_emo,1.30172086437233,1,2,2,1,1661100.75691316,42,B
50,2,7/3/89,27,m,294,The hotline dialed Hugh,Non-sensible,edin_semantics,sem_emo_sem_emo,1.07835712237284,2,2,2,1,1661102.579937,138,B
50,2,7/3/89,27,m,295,Jane punched the wall,Sensible,edin_semantics,sem_emo_sem_emo,1.60773972026072,2,2,2,1,1661104.93212855,50,B
50,2,7/3/89,27,m,296,The hospital visited Tom,Non-sensible,edin_semantics,sem_emo_sem_emo,1.24294508481398,1,1,1,1,1661106.9198215,91,B
50,2,7/3/89,27,m,297,Kate lifted the box,Sensible,edin_semantics,sem_emo_sem_emo,1.49004094977863,1,1,1,1,1661109.15439575,69,B
50,2,7/3/89,27,m,298,The church described Erin,Non-sensible,edin_semantics,sem_emo_sem_emo,1.9133265640121,2,1,1,1,1661111.81244708,117,B
50,2,7/3/89,27,m,299,Phil chopped the herbs,Sensible,edin_semantics,sem_emo_sem_emo,3.42999190511182,2,1,1,1,1661115.98763041,27,B
50,2,7/3/89,27,m,300,The shed built Rose,Non-sensible,edin_semantics,sem_emo_sem_emo,1.96030459576286,2,1,1,1,1661118.69271461,121,B
