subject_column,AssignedList_column,subject_dob_column,subject_age_column,subject_gender_column,trialnum_column,Stim_column,Type_column,Experiment_column,OrderGroup_column,ReactionTime_column,StimSide_column,StimPosition_column,Response_column,Valid_column,TrialEndSecs_column,PairID_column,List_column
51,3,16/9/93,22,f,1,Phil typed the letter,Sensible,edin_semantics,emo_sem_emo_sem,2.06075623608194,1,2,2,1,1664929.69291763,49,B
51,3,16/9/93,22,f,2,The nuts mixed Liam,Non-sensible,edin_semantics,emo_sem_emo_sem,1.33532832912169,2,2,2,1,1664931.77467152,83,B
51,3,16/9/93,22,f,3,Matt drank the juice,Sensible,edin_semantics,emo_sem_emo_sem,2.45255660102703,2,1,1,1,1664934.97370499,60,B
51,3,16/9/93,22,f,4,The gum swallowed Owen,Non-sensible,edin_semantics,emo_sem_emo_sem,1.15905455104075,1,2,2,1,1664936.87900742,97,B
51,3,16/9/93,22,f,5,Luke swallowed the pill,Sensible,edin_semantics,emo_sem_emo_sem,1.26795977377333,2,1,1,1,1664938.89015635,22,B
51,3,16/9/93,22,f,6,The dress wore Kate,Non-sensible,edin_semantics,emo_sem_emo_sem,1.72606229432859,1,1,1,1,1664941.35999375,100,B
51,3,16/9/93,22,f,7,Will mashed the potatoes,Sensible,edin_semantics,emo_sem_emo_sem,1.23197768558748,1,1,1,1,1664943.33591397,28,B
51,3,16/9/93,22,f,8,Bill counted the sheets,Sensible,edin_semantics,emo_sem_emo_sem,1.45506015466526,1,1,1,1,1664945.53524347,48,B
51,3,16/9/93,22,f,9,The opera watched Adam,Non-sensible,edin_semantics,emo_sem_emo_sem,1.52632836508565,2,1,1,1,1664947.8051667,108,B
51,3,16/9/93,22,f,10,The gift posted Jack,Non-sensible,edin_semantics,emo_sem_emo_sem,1.51418038923293,1,2,2,1,1664950.06329154,111,B
51,3,16/9/93,22,f,11,Jen fixed the laptop,Sensible,edin_semantics,emo_sem_emo_sem,1.43250924954191,1,2,2,1,1664952.23911278,37,B
51,3,16/9/93,22,f,12,The ice crushed Josh,Non-sensible,edin_semantics,emo_sem_emo_sem,1.93753271363676,2,2,2,1,1664954.92062876,81,B
51,3,16/9/93,22,f,13,Beth wiped the table,Sensible,edin_semantics,emo_sem_emo_sem,1.87931915931404,1,1,1,1,1664957.54341706,40,B
51,3,16/9/93,22,f,14,Mary visited the museum,Sensible,edin_semantics,emo_sem_emo_sem,1.99650509562343,1,1,1,1,1664960.28376366,16,B
51,3,16/9/93,22,f,15,Jon polished the coins,Sensible,edin_semantics,emo_sem_emo_sem,1.56134315673262,2,2,2,1,1664962.58894318,29,B
51,3,16/9/93,22,f,16,The beer drank Jack,Non-sensible,edin_semantics,emo_sem_emo_sem,2.0431396344211,2,2,2,1,1664965.37631528,135,B
51,3,16/9/93,22,f,17,Phil sniffed the milk,Sensible,edin_semantics,emo_sem_emo_sem,1.34986247471534,2,1,1,1,1664967.46979443,18,B
51,3,16/9/93,22,f,18,Tim ate the ham,Sensible,edin_semantics,emo_sem_emo_sem,1.63190674199723,1,2,2,1,1664969.84554973,67,B
51,3,16/9/93,22,f,19,The steak ate Mike,Non-sensible,edin_semantics,emo_sem_emo_sem,2.23168486659415,1,1,1,1,1664972.82121144,142,B
51,3,16/9/93,22,f,20,Luke climbed the hill,Sensible,edin_semantics,emo_sem_emo_sem,1.18504712055437,1,1,1,1,1664974.75003785,68,B
51,3,16/9/93,22,f,21,The debt paid Zoe,Non-sensible,edin_semantics,emo_sem_emo_sem,1.03188294428401,1,1,1,1,1664976.52589218,134,B
51,3,16/9/93,22,f,22,The trousers ironed Eve,Non-sensible,edin_semantics,emo_sem_emo_sem,1.0435363673605,1,1,1,1,1664978.31360777,130,B
51,3,16/9/93,22,f,23,Leo stored the wine,Sensible,edin_semantics,emo_sem_emo_sem,1.72609500819817,2,1,1,1,1664980.78347982,52,B
51,3,16/9/93,22,f,24,The rose kissed Hugh,Non-sensible,edin_semantics,emo_sem_emo_sem,1.10287020262331,1,1,1,1,1664982.62998241,98,B
51,3,16/9/93,22,f,25,The perfume sniffed Tim,Non-sensible,edin_semantics,emo_sem_emo_sem,1.82063382305205,1,2,2,1,1664985.19389551,93,B
51,3,16/9/93,22,f,26,Will licked the spoon,Sensible,edin_semantics,emo_sem_emo_sem,1.2087019495666,1,2,2,1,1664987.14625198,21,B
51,3,16/9/93,22,f,27,The plate licked Jane,Non-sensible,edin_semantics,emo_sem_emo_sem,1.14994862023741,2,1,1,1,1664989.03978424,96,B
51,3,16/9/93,22,f,28,The hospital visited Tom,Non-sensible,edin_semantics,emo_sem_emo_sem,1.40947982785292,1,2,2,1,1664991.19212705,91,B
51,3,16/9/93,22,f,29,Jon trimmed the bushes,Sensible,edin_semantics,emo_sem_emo_sem,1.0557664479129,1,1,1,1,1664992.99153712,32,B
51,3,16/9/93,22,f,30,Amy hugged the tree,Sensible,edin_semantics,emo_sem_emo_sem,1.00934101967141,2,2,2,1,1664994.74395857,11,B
51,3,16/9/93,22,f,31,The blanket stroked Ryan,Non-sensible,edin_semantics,emo_sem_emo_sem,1.10270663467236,2,1,1,1,1664996.59046629,116,B
51,3,16/9/93,22,f,32,The radio got Ben,Non-sensible,edin_semantics,emo_sem_emo_sem,0.985417105024681,1,1,1,1,1664998.31935735,88,B
51,3,16/9/93,22,f,33,Matt offered the money,Sensible,edin_semantics,emo_sem_emo_sem,2.18532550707459,1,2,2,1,1665001.24787297,9,B
51,3,16/9/93,22,f,34,Max kissed the mirror,Sensible,edin_semantics,emo_sem_emo_sem,1.23263420281,2,2,2,1,1665003.22375759,23,B
51,3,16/9/93,22,f,35,The party cancelled Phil,Non-sensible,edin_semantics,emo_sem_emo_sem,1.14987068506889,2,1,1,1,1665005.1173402,82,B
51,3,16/9/93,22,f,36,Erin crushed the garlic,Sensible,edin_semantics,emo_sem_emo_sem,1.20869040349498,1,1,1,1,1665007.06967262,6,B
51,3,16/9/93,22,f,37,The bath cleaned Jack,Non-sensible,edin_semantics,emo_sem_emo_sem,1.75064689549617,2,1,1,1,1665009.56302663,80,B
51,3,16/9/93,22,f,38,Eve taught the lesson,Sensible,edin_semantics,emo_sem_emo_sem,0.961896979250014,2,2,2,1,1665011.26843669,15,B
51,3,16/9/93,22,f,39,The kettle carried John,Non-sensible,edin_semantics,emo_sem_emo_sem,1.54984817025252,1,2,2,1,1665013.56186144,105,B
51,3,16/9/93,22,f,40,The garage tidied Erin,Non-sensible,edin_semantics,emo_sem_emo_sem,1.39700696105137,2,2,2,1,1665015.70236192,77,B
51,3,16/9/93,22,f,41,Amy measured the thread,Sensible,edin_semantics,emo_sem_emo_sem,1.11411919561215,1,2,2,1,1665017.56065906,51,B
51,3,16/9/93,22,f,42,Joe solved the puzzle,Sensible,edin_semantics,emo_sem_emo_sem,1.16179415560327,2,1,1,1,1665019.46592877,34,B
51,3,16/9/93,22,f,43,The report filed Ian,Non-sensible,edin_semantics,emo_sem_emo_sem,0.937944199657068,1,2,2,1,1665021.14777958,99,B
51,3,16/9/93,22,f,44,The rules taught Josh,Non-sensible,edin_semantics,emo_sem_emo_sem,1.97293076757342,2,1,1,1,1665023.86460733,90,B
51,3,16/9/93,22,f,45,Ewan wrote the story,Sensible,edin_semantics,emo_sem_emo_sem,1.1727535368409,1,1,1,1,1665025.78170494,74,B
51,3,16/9/93,22,f,46,Jon cut the paper,Sensible,edin_semantics,emo_sem_emo_sem,1.10253344476223,1,1,1,1,1665027.62819824,20,B
51,3,16/9/93,22,f,47,Phil chopped the herbs,Sensible,edin_semantics,emo_sem_emo_sem,1.0790235819295,2,2,2,1,1665029.45126473,27,B
51,3,16/9/93,22,f,48,The rope pulled Andy,Non-sensible,edin_semantics,emo_sem_emo_sem,1.20843318477273,1,1,1,1,1665031.4035638,148,B
51,3,16/9/93,22,f,49,The report wrote Alex,Non-sensible,edin_semantics,emo_sem_emo_sem,1.17326733306982,2,2,2,1,1665033.3205979,149,B
51,3,16/9/93,22,f,50,Jen searched the room,Sensible,edin_semantics,emo_sem_emo_sem,0.984664371237159,2,1,1,1,1665035.04953001,10,B
51,3,16/9/93,22,f,51,Ryan entered the room,Sensible,edin_semantics,emo_sem_emo_sem,1.06781371706165,2,1,1,1,1665036.86073783,58,B
51,3,16/9/93,22,f,52,Tom knitted the scarf,Sensible,edin_semantics,emo_sem_emo_sem,1.11517404927872,2,1,1,1,1665038.71899904,66,B
51,3,16/9/93,22,f,53,Josh ironed the shirt,Sensible,edin_semantics,emo_sem_emo_sem,1.47964026569389,1,2,2,1,1665040.94185091,55,B
51,3,16/9/93,22,f,54,The socks knitted Ryan,Non-sensible,edin_semantics,emo_sem_emo_sem,1.13774227304384,1,2,2,1,1665042.8236268,141,B
51,3,16/9/93,22,f,55,Ian cancelled the plans,Sensible,edin_semantics,emo_sem_emo_sem,1.70242093550041,2,2,2,1,1665045.26994119,7,B
51,3,16/9/93,22,f,56,The hair brushed Dan,Non-sensible,edin_semantics,emo_sem_emo_sem,1.58527188212611,1,2,2,1,1665047.59866586,147,B
51,3,16/9/93,22,f,57,Jack mixed the fruits,Sensible,edin_semantics,emo_sem_emo_sem,1.32621855009347,1,1,1,1,1665049.66863836,8,B
51,3,16/9/93,22,f,58,The onion sliced Liam,Non-sensible,edin_semantics,emo_sem_emo_sem,1.07975707272999,2,1,1,1,1665051.49164167,78,B
51,3,16/9/93,22,f,59,Jeff watered the garden,Sensible,edin_semantics,emo_sem_emo_sem,1.00830861646682,2,1,1,1,1665053.24399994,54,B
51,3,16/9/93,22,f,60,The hotline dialed Hugh,Non-sensible,edin_semantics,emo_sem_emo_sem,1.0559117347002,1,1,1,1,1665055.04350718,138,B
51,3,16/9/93,22,f,61,The box labeled Ian,Non-sensible,edin_semantics,emo_sem_emo_sem,0.89127021189779,2,1,1,1,1665056.67834628,136,B
51,3,16/9/93,22,f,62,Rob mailed the parcel,Sensible,edin_semantics,emo_sem_emo_sem,1.43263657600619,1,1,1,1,1665058.85410883,14,B
51,3,16/9/93,22,f,63,The carrots chopped Fred,Non-sensible,edin_semantics,emo_sem_emo_sem,1.12664177431725,1,1,1,1,1665060.7241277,102,B
51,3,16/9/93,22,f,64,Andy grated the cheese,Sensible,edin_semantics,emo_sem_emo_sem,2.12594869476743,2,2,2,1,1665063.59385215,65,B
51,3,16/9/93,22,f,65,The invite mailed Ian,Non-sensible,edin_semantics,emo_sem_emo_sem,0.902520808391273,2,2,2,1,1665065.24043287,89,B
51,3,16/9/93,22,f,66,Ryan painted the picture,Sensible,edin_semantics,emo_sem_emo_sem,1.4325374730397,1,2,2,1,1665067.41624802,35,B
51,3,16/9/93,22,f,67,Leah sucked the lolly,Sensible,edin_semantics,emo_sem_emo_sem,1.25613444391638,1,1,1,1,1665069.41564378,12,B
51,3,16/9/93,22,f,68,Tim pulled the handle,Sensible,edin_semantics,emo_sem_emo_sem,1.5025484545622,1,2,2,1,1665071.66203277,73,B
51,3,16/9/93,22,f,69,The dessert served Fred,Non-sensible,edin_semantics,emo_sem_emo_sem,0.856187106342986,1,2,2,1,1665073.26154823,145,B
51,3,16/9/93,22,f,70,The radio fixed Luke,Non-sensible,edin_semantics,emo_sem_emo_sem,0.903334800153971,1,1,1,1,1665074.90813376,112,B
51,3,16/9/93,22,f,71,The crate lifted Amy,Non-sensible,edin_semantics,emo_sem_emo_sem,0.903131462400779,2,1,1,1,1665076.55468369,144,B
51,3,16/9/93,22,f,72,The cream whisked Tom,Non-sensible,edin_semantics,emo_sem_emo_sem,1.36172051797621,2,2,2,1,1665078.65993205,137,B
51,3,16/9/93,22,f,73,The fat chewed Adam,Non-sensible,edin_semantics,emo_sem_emo_sem,1.10298662446439,2,1,1,1,1665080.50643143,106,B
51,3,16/9/93,22,f,74,Josh squeezed the ball,Sensible,edin_semantics,emo_sem_emo_sem,1.03191213007085,1,2,2,1,1665082.28236531,1,B
51,3,16/9/93,22,f,75,The carrots grated Tom,Non-sensible,edin_semantics,emo_sem_emo_sem,0.985371241578832,2,1,1,1,1665084.01125733,140,B
51,3,16/9/93,22,f,76,The bowl dented Ian,Non-sensible,edin_semantics,emo_sem_emo_sem,1.07919324375689,2,1,1,1,1665085.83421895,146,B
51,3,16/9/93,22,f,77,Jake dusted the shelf,Sensible,edin_semantics,emo_sem_emo_sem,1.12635857705027,1,2,2,1,1665087.70426284,47,B
51,3,16/9/93,22,f,78,The monitor punched Erin,Non-sensible,edin_semantics,emo_sem_emo_sem,1.24398069502786,1,2,2,1,1665089.6919003,125,B
51,3,16/9/93,22,f,79,The hair trimmed Bill,Non-sensible,edin_semantics,emo_sem_emo_sem,0.938305973773822,1,2,2,1,1665091.37376009,107,B
51,3,16/9/93,22,f,80,The portrait painted Jay,Non-sensible,edin_semantics,emo_sem_emo_sem,0.973632827633992,2,1,1,1,1665093.09087681,110,B
51,3,16/9/93,22,f,81,Phil passed the towels,Sensible,edin_semantics,emo_sem_emo_sem,1.06752346409485,1,2,2,1,1665094.90209361,43,B
51,3,16/9/93,22,f,82,Matt kicked the bike,Sensible,edin_semantics,emo_sem_emo_sem,0.85624098777771,1,2,2,1,1665096.50160938,39,B
51,3,16/9/93,22,f,83,Rob stroked the fur,Sensible,edin_semantics,emo_sem_emo_sem,0.996901186881587,2,2,2,1,1665098.24232449,41,B
51,3,16/9/93,22,f,84,Dan carried the folder,Sensible,edin_semantics,emo_sem_emo_sem,1.03238198719919,2,1,1,1,1665100.01846106,30,B
51,3,16/9/93,22,f,85,The shoes counted Lucy,Non-sensible,edin_semantics,emo_sem_emo_sem,1.06840095855296,2,2,2,1,1665101.82943443,123,B
51,3,16/9/93,22,f,86,Kate served the dish,Sensible,edin_semantics,emo_sem_emo_sem,0.950869925552979,1,1,1,1,1665103.52305059,70,B
51,3,16/9/93,22,f,87,The trophy polished Anna,Non-sensible,edin_semantics,emo_sem_emo_sem,0.93911611661315,1,1,1,1,1665105.20489595,104,B
51,3,16/9/93,22,f,88,Sam tidied the room,Sensible,edin_semantics,emo_sem_emo_sem,1.02094922098331,2,1,1,1,1665106.96908243,2,B
51,3,16/9/93,22,f,89,Lily got the kettle,Sensible,edin_semantics,emo_sem_emo_sem,0.950951709644869,1,2,2,1,1665108.66268095,13,B
51,3,16/9/93,22,f,90,Ben chewed the toffee,Sensible,edin_semantics,emo_sem_emo_sem,1.11509098228998,1,2,2,1,1665110.52094313,31,B
51,3,16/9/93,22,f,91,Jane punched the wall,Sensible,edin_semantics,emo_sem_emo_sem,1.02133472822607,1,1,1,1,1665112.28514597,50,B
51,3,16/9/93,22,f,92,The salt passed Leo,Non-sensible,edin_semantics,emo_sem_emo_sem,1.0917321795132,2,1,1,1,1665114.11990277,118,B
51,3,16/9/93,22,f,93,Erin posted the card,Sensible,edin_semantics,emo_sem_emo_sem,0.97406163229607,2,1,1,1,1665115.83698037,36,B
51,3,16/9/93,22,f,94,The pan washed Beth,Non-sensible,edin_semantics,emo_sem_emo_sem,1.05669782380573,1,1,1,1,1665117.63645939,132,B
51,3,16/9/93,22,f,95,John described the pen,Sensible,edin_semantics,emo_sem_emo_sem,1.02096846397035,1,1,1,1,1665119.40062566,42,B
51,3,16/9/93,22,f,96,The rice stored Fred,Non-sensible,edin_semantics,emo_sem_emo_sem,1.06794681679457,1,2,2,1,1665121.2118508,127,B
51,3,16/9/93,22,f,97,The office entered Joe,Non-sensible,edin_semantics,emo_sem_emo_sem,1.2210885421373,2,2,2,1,1665123.1759614,133,B
51,3,16/9/93,22,f,98,The desk wiped Lucy,Non-sensible,edin_semantics,emo_sem_emo_sem,0.891555974958465,1,2,2,1,1665124.81079857,115,B
51,3,16/9/93,22,f,99,The candy sucked Sam,Non-sensible,edin_semantics,emo_sem_emo_sem,0.96226228098385,2,2,2,1,1665126.51618522,87,B
51,3,16/9/93,22,f,100,The church described Erin,Non-sensible,edin_semantics,emo_sem_emo_sem,1.00906808534637,1,2,2,1,1665128.26855311,117,B
51,3,16/9/93,22,f,101,Carl sold the sofa,Sensible,edin_semantics,emo_sem_emo_sem,0.997381307417527,1,1,1,1,1665130.00920696,38,B
51,3,16/9/93,22,f,102,Sean read the book,Sensible,edin_semantics,emo_sem_emo_sem,1.13845267170109,2,1,1,1,1665131.89097066,4,B
51,3,16/9/93,22,f,103,Beth took the photo,Sensible,edin_semantics,emo_sem_emo_sem,0.83247583033517,2,2,2,1,1665133.46696919,53,B
51,3,16/9/93,22,f,104,The shed built Rose,Non-sensible,edin_semantics,emo_sem_emo_sem,0.868056375300512,1,2,2,1,1665135.0782561,121,B
51,3,16/9/93,22,f,105,The curtains measured Rob,Non-sensible,edin_semantics,emo_sem_emo_sem,0.79712524311617,2,1,1,1,1665136.61900443,126,B
51,3,16/9/93,22,f,106,The sweets offered Tom,Non-sensible,edin_semantics,emo_sem_emo_sem,0.773251361213624,2,1,1,1,1665138.13618677,84,B
51,3,16/9/93,22,f,107,Liz scrubbed the bowl,Sensible,edin_semantics,emo_sem_emo_sem,0.983327282359824,1,1,1,1,1665139.86510477,56,B
51,3,16/9/93,22,f,108,The ticket took Tim,Non-sensible,edin_semantics,emo_sem_emo_sem,0.938399624312297,2,1,1,1,1665141.54694756,128,B
51,3,16/9/93,22,f,109,Kate built the house,Sensible,edin_semantics,emo_sem_emo_sem,1.12651156121865,2,1,1,1,1665143.41696611,46,B
51,3,16/9/93,22,f,110,The wallet carried Leo,Non-sensible,edin_semantics,emo_sem_emo_sem,0.902188861509785,2,1,1,1,1665145.06353176,150,B
51,3,16/9/93,22,f,111,The internet searched Max,Non-sensible,edin_semantics,emo_sem_emo_sem,1.7723087600898,1,2,2,1,1665147.58042353,85,B
51,3,16/9/93,22,f,112,The donut iced Joe,Non-sensible,edin_semantics,emo_sem_emo_sem,0.85571051412262,1,2,2,1,1665149.17992519,119,B
51,3,16/9/93,22,f,113,The house dusted Alex,Non-sensible,edin_semantics,emo_sem_emo_sem,1.40776364598423,2,1,1,1,1665151.33222599,122,B
51,3,16/9/93,22,f,114,Max lent the bucket,Sensible,edin_semantics,emo_sem_emo_sem,1.03151764231734,1,2,2,1,1665153.10813132,19,B
51,3,16/9/93,22,f,115,Tom dialed the number,Sensible,edin_semantics,emo_sem_emo_sem,1.16095129889436,2,2,2,1,1665155.01373074,63,B
51,3,16/9/93,22,f,116,Tim cleaned the floor,Sensible,edin_semantics,emo_sem_emo_sem,1.19612869666889,1,2,2,1,1665156.95404764,5,B
51,3,16/9/93,22,f,117,The bed sold Jay,Non-sensible,edin_semantics,emo_sem_emo_sem,1.10249720350839,1,2,2,1,1665158.80055632,113,B
51,3,16/9/93,22,f,118,The message typed Eve,Non-sensible,edin_semantics,emo_sem_emo_sem,0.92607140284963,1,1,1,1,1665160.47062991,124,B
51,3,16/9/93,22,f,119,The door kicked Max,Non-sensible,edin_semantics,emo_sem_emo_sem,1.09007116174325,2,1,1,1,1665162.30539056,114,B
51,3,16/9/93,22,f,120,The poster read Luke,Non-sensible,edin_semantics,emo_sem_emo_sem,1.37276777694933,1,2,2,1,1665164.42238984,79,B
51,3,16/9/93,22,f,121,Hugh pulled the lever,Sensible,edin_semantics,emo_sem_emo_sem,0.902643644949421,1,2,2,1,1665166.06895068,45,B
51,3,16/9/93,22,f,122,The sugar weighed Liz,Non-sensible,edin_semantics,emo_sem_emo_sem,2.18453204142861,2,2,2,1,1665168.99751248,139,B
51,3,16/9/93,22,f,123,Kate lifted the box,Sensible,edin_semantics,emo_sem_emo_sem,1.83130840328522,1,2,2,1,1665171.5731935,69,B
51,3,16/9/93,22,f,124,The ribbon cut Lucy,Non-sensible,edin_semantics,emo_sem_emo_sem,1.01992355263792,1,2,2,1,1665173.33737165,95,B
51,3,16/9/93,22,f,125,Mike paid the bill,Sensible,edin_semantics,emo_sem_emo_sem,1.09042812511325,2,2,2,1,1665175.17209157,59,B
51,3,16/9/93,22,f,126,The lemon squeezed Jay,Non-sensible,edin_semantics,emo_sem_emo_sem,1.1023641040083,1,1,1,1,1665177.01861693,76,B
51,3,16/9/93,22,f,127,Ryan carried the gun,Sensible,edin_semantics,emo_sem_emo_sem,1.27878284850158,1,2,2,1,1665179.04152705,75,B
51,3,16/9/93,22,f,128,Dan whisked the eggs,Sensible,edin_semantics,emo_sem_emo_sem,1.32595876557752,2,1,1,1,1665181.11154925,62,B
51,3,16/9/93,22,f,129,Jon jumped the fence,Sensible,edin_semantics,emo_sem_emo_sem,1.61975042731501,1,2,2,1,1665183.47551129,17,B
51,3,16/9/93,22,f,130,Liz labeled the jar,Sensible,edin_semantics,emo_sem_emo_sem,1.56043262802996,2,2,2,1,1665185.78072835,61,B
51,3,16/9/93,22,f,131,Lara filed the papers,Sensible,edin_semantics,emo_sem_emo_sem,1.25522327353247,1,1,1,1,1665187.78016099,24,B
51,3,16/9/93,22,f,132,Mary iced the cake,Sensible,edin_semantics,emo_sem_emo_sem,1.38437918550335,2,1,1,1,1665189.9088727,44,B
51,3,16/9/93,22,f,133,Ella watched the movie,Sensible,edin_semantics,emo_sem_emo_sem,1.11389340739697,2,2,2,1,1665191.76712205,33,B
51,3,16/9/93,22,f,134,The button pushed Ian,Non-sensible,edin_semantics,emo_sem_emo_sem,1.53766459436156,1,2,2,1,1665194.04880037,101,B
51,3,16/9/93,22,f,135,The pillow hugged Kate,Non-sensible,edin_semantics,emo_sem_emo_sem,1.05500794108957,2,1,1,1,1665195.84826592,86,B
51,3,16/9/93,22,f,136,The plants watered Luke,Non-sensible,edin_semantics,emo_sem_emo_sem,1.00845775194466,1,2,2,1,1665197.60068705,129,B
51,3,16/9/93,22,f,137,Matt pushed the trolley,Sensible,edin_semantics,emo_sem_emo_sem,0.8547589329537,2,1,1,1,1665199.20025863,26,B
51,3,16/9/93,22,f,138,Mark washed the dishes,Sensible,edin_semantics,emo_sem_emo_sem,1.68974857986905,2,2,2,1,1665201.63476309,57,B
51,3,16/9/93,22,f,139,Carl brushed the teeth,Sensible,edin_semantics,emo_sem_emo_sem,0.890459106536582,2,1,1,1,1665203.26953997,72,B
51,3,16/9/93,22,f,140,The car lent Fred,Non-sensible,edin_semantics,emo_sem_emo_sem,0.973075092537329,2,1,1,1,1665204.98666535,94,B
51,3,16/9/93,22,f,141,The pot scrubbed Josh,Non-sensible,edin_semantics,emo_sem_emo_sem,1.27819721051492,2,2,2,1,1665207.00964089,131,B
51,3,16/9/93,22,f,142,The turnip mashed Ella,Non-sensible,edin_semantics,emo_sem_emo_sem,1.01951270806603,2,2,2,1,1665208.77379402,103,B
51,3,16/9/93,22,f,143,Joe wore the jumper,Sensible,edin_semantics,emo_sem_emo_sem,2.50157153629698,1,2,2,1,1665212.01988827,25,B
51,3,16/9/93,22,f,144,The stairs climbed Ben,Non-sensible,edin_semantics,emo_sem_emo_sem,0.901290840702131,2,2,2,1,1665213.66642249,143,B
51,3,16/9/93,22,f,145,The problem solved Phil,Non-sensible,edin_semantics,emo_sem_emo_sem,1.03078062389977,2,2,2,1,1665215.44237754,109,B
51,3,16/9/93,22,f,146,Jen weighed the flour,Sensible,edin_semantics,emo_sem_emo_sem,1.01916023506783,1,1,1,1,1665217.20655921,64,B
51,3,16/9/93,22,f,147,Liz sliced the tomato,Sensible,edin_semantics,emo_sem_emo_sem,1.18314107134938,1,2,2,1,1665219.13543308,3,B
51,3,16/9/93,22,f,148,The rope pulled Emma,Non-sensible,edin_semantics,emo_sem_emo_sem,0.93693905766122,1,1,1,1,1665220.81723417,120,B
51,3,16/9/93,22,f,149,Lily dented the lorry,Sensible,edin_semantics,emo_sem_emo_sem,0.85480928607285,2,2,2,1,1665222.41673423,71,B
51,3,16/9/93,22,f,150,The hedge jumped Sara,Non-sensible,edin_semantics,emo_sem_emo_sem,0.901368134655058,2,1,1,1,1665224.06338872,92,B
51,3,16/9/93,22,f,24,The sheets counted Bill,Non-sensible,edin_semantics,emo_sem_emo_sem,1.07103183865547,2,1,1,1,1665228.94419507,48,A
51,3,16/9/93,22,f,25,Amy lifted the crate,Sensible,edin_semantics,emo_sem_emo_sem,0.981787176802754,1,1,1,1,1665230.67313135,144,A
51,3,16/9/93,22,f,26,Leo passed the salt,Sensible,edin_semantics,emo_sem_emo_sem,0.901903739897534,2,1,1,1,1665232.31965915,118,A
51,3,16/9/93,22,f,27,Ben climbed the stairs,Sensible,edin_semantics,emo_sem_emo_sem,1.25429735006765,2,2,2,1,1665234.31907736,143,A
51,3,16/9/93,22,f,28,The room entered Ryan,Non-sensible,edin_semantics,emo_sem_emo_sem,0.959185277111828,2,1,1,1,1665236.02441077,58,A
51,3,16/9/93,22,f,29,Bill trimmed the hair,Sensible,edin_semantics,emo_sem_emo_sem,0.701214701402932,2,2,2,1,1665237.47111997,107,A
51,3,16/9/93,22,f,30,Ian labeled the box,Sensible,edin_semantics,emo_sem_emo_sem,0.924885053420439,2,1,1,1,1665239.14114705,136,A
51,3,16/9/93,22,f,31,The bill paid Mike,Non-sensible,edin_semantics,emo_sem_emo_sem,0.796099254162982,2,2,2,1,1665240.68185049,59,A
51,3,16/9/93,22,f,32,The picture painted Ryan,Non-sensible,edin_semantics,emo_sem_emo_sem,1.03099230024964,1,2,1,0,1665242.45777763,35,A
51,3,16/9/93,22,f,33,The flour weighed Jen,Non-sensible,edin_semantics,emo_sem_emo_sem,1.44262513285503,1,1,1,1,1665244.64535524,64,A
51,3,16/9/93,22,f,34,The wall punched Jane,Non-sensible,edin_semantics,emo_sem_emo_sem,1.21892816084437,2,1,1,1,1665246.60948188,50,A
51,3,16/9/93,22,f,35,Sara jumped the hedge,Sensible,edin_semantics,emo_sem_emo_sem,1.25367867806926,2,1,1,1,1665248.6089033,92,A
51,3,16/9/93,22,f,36,Liam sliced the onion,Sensible,edin_semantics,emo_sem_emo_sem,1.00673547643237,2,1,1,1,1665250.36128049,78,A
51,3,16/9/93,22,f,37,Ben got the radio,Sensible,edin_semantics,emo_sem_emo_sem,0.959986760746688,2,1,1,1,1665252.06667259,88,A
51,3,16/9/93,22,f,38,Alex wrote the report,Sensible,edin_semantics,emo_sem_emo_sem,1.68926108279265,1,2,2,1,1665254.50123959,149,A
51,3,16/9/93,22,f,39,Eve typed the message,Sensible,edin_semantics,emo_sem_emo_sem,1.01913137012161,2,1,1,1,1665256.26538598,124,A
51,3,16/9/93,22,f,40,Luke watered the plants,Sensible,edin_semantics,emo_sem_emo_sem,1.25383583153598,2,2,2,1,1665258.26482664,129,A
51,3,16/9/93,22,f,41,The floor cleaned Tim,Non-sensible,edin_semantics,emo_sem_emo_sem,1.13643886009231,2,2,2,1,1665260.14660349,5,A
51,3,16/9/93,22,f,42,The potatoes mashed Will,Non-sensible,edin_semantics,emo_sem_emo_sem,1.38355813804083,1,1,1,1,1665262.27537743,28,A
51,3,16/9/93,22,f,43,The card posted Erin,Non-sensible,edin_semantics,emo_sem_emo_sem,1.12485567526892,2,1,1,1,1665264.14539213,36,A
51,3,16/9/93,22,f,44,Ryan knitted the socks,Sensible,edin_semantics,emo_sem_emo_sem,1.43129788385704,2,2,2,1,1665266.32120727,141,A
51,3,16/9/93,22,f,45,The pen described John,Non-sensible,edin_semantics,emo_sem_emo_sem,1.7355396207422,1,1,1,1,1665268.802811,42,A
51,3,16/9/93,22,f,46,The ham ate Tim,Non-sensible,edin_semantics,emo_sem_emo_sem,1.30162015766837,1,2,2,1,1665270.84925535,67,A
51,3,16/9/93,22,f,47,The coins polished Jon,Non-sensible,edin_semantics,emo_sem_emo_sem,1.24261057190597,1,2,2,1,1665272.83691141,29,A
51,3,16/9/93,22,f,48,The trolley pushed Matt,Non-sensible,edin_semantics,emo_sem_emo_sem,0.98406911175698,1,1,1,1,1665274.56579413,26,A
51,3,16/9/93,22,f,49,Sam sucked the candy,Sensible,edin_semantics,emo_sem_emo_sem,1.65454937308095,2,2,2,1,1665276.96507533,87,A
51,3,16/9/93,22,f,50,The tomato sliced Liz,Non-sensible,edin_semantics,emo_sem_emo_sem,1.66666623903438,2,2,2,1,1665279.37614915,3,A
51,3,16/9/93,22,f,51,The scarf knitted Tom,Non-sensible,edin_semantics,emo_sem_emo_sem,1.38487373827957,1,1,1,1,1665281.50489838,66,A
51,3,16/9/93,22,f,52,Rose built the shed,Sensible,edin_semantics,emo_sem_emo_sem,1.19711299147457,1,2,2,1,1665283.44546673,121,A
51,3,16/9/93,22,f,53,The spoon licked Will,Non-sensible,edin_semantics,emo_sem_emo_sem,1.44315977580845,1,2,2,1,1665285.63304562,21,A
51,3,16/9/93,22,f,54,Luke read the poster,Sensible,edin_semantics,emo_sem_emo_sem,1.05494892830029,2,2,2,1,1665287.43249835,79,A
51,3,16/9/93,22,f,55,The bike kicked Matt,Non-sensible,edin_semantics,emo_sem_emo_sem,1.71374882617965,1,2,2,1,1665289.89059862,39,A
51,3,16/9/93,22,f,56,The story wrote Ewan,Non-sensible,edin_semantics,emo_sem_emo_sem,1.5716626981739,1,1,1,1,1665292.20757461,74,A
51,3,16/9/93,22,f,57,The money offered Matt,Non-sensible,edin_semantics,emo_sem_emo_sem,1.16123898653314,1,2,2,1,1665294.11286549,9,A
51,3,16/9/93,22,f,58,Erin described the church,Sensible,edin_semantics,emo_sem_emo_sem,0.94900749460794,2,2,2,1,1665295.80646819,117,A
51,3,16/9/93,22,f,59,Liam mixed the nuts,Sensible,edin_semantics,emo_sem_emo_sem,1.40810970473103,1,2,2,1,1665297.95875647,83,A
51,3,16/9/93,22,f,60,The garlic crushed Erin,Non-sensible,edin_semantics,emo_sem_emo_sem,1.20810540695675,1,1,1,1,1665299.91111487,6,A
51,3,16/9/93,22,f,61,The cheese grated Andy,Non-sensible,edin_semantics,emo_sem_emo_sem,1.39636070677079,2,2,2,1,1665302.05167949,65,A
51,3,16/9/93,22,f,62,The fur stroked Rob,Non-sensible,edin_semantics,emo_sem_emo_sem,1.93729409668595,1,2,2,1,1665304.73327276,41,A
51,3,16/9/93,22,f,63,The towels passed Phil,Non-sensible,edin_semantics,emo_sem_emo_sem,1.11365190404467,2,2,2,1,1665306.59146181,43,A
51,3,16/9/93,22,f,64,Alex dusted the house,Sensible,edin_semantics,emo_sem_emo_sem,1.10184228955768,2,1,1,1,1665308.43796312,122,A
51,3,16/9/93,22,f,65,Dan brushed the hair,Sensible,edin_semantics,emo_sem_emo_sem,1.21956415195018,1,2,2,1,1665310.40207982,147,A
51,3,16/9/93,22,f,66,Jack drank the beer,Sensible,edin_semantics,emo_sem_emo_sem,1.56049677217379,1,2,2,1,1665312.7073113,135,A
51,3,16/9/93,22,f,67,Josh crushed the ice,Sensible,edin_semantics,emo_sem_emo_sem,1.56090986169875,2,2,2,1,1665315.01249564,81,A
51,3,16/9/93,22,f,68,Mike ate the steak,Sensible,edin_semantics,emo_sem_emo_sem,1.09025365230627,1,1,1,1,1665316.84723224,142,A
51,3,16/9/93,22,f,69,Fred served the dessert,Sensible,edin_semantics,emo_sem_emo_sem,1.86642582598142,1,2,2,1,1665319.45819232,145,A
51,3,16/9/93,22,f,70,Ian filed the report,Sensible,edin_semantics,emo_sem_emo_sem,1.19589232490398,2,2,2,1,1665321.39886105,99,A
51,3,16/9/93,22,f,71,The dish served Kate,Non-sensible,edin_semantics,emo_sem_emo_sem,1.23023424227722,1,1,1,1,1665323.37470943,70,A
51,3,16/9/93,22,f,72,Beth washed the pan,Sensible,edin_semantics,emo_sem_emo_sem,0.96012338809669,1,1,1,1,1665325.08007427,132,A
51,3,16/9/93,22,f,73,Ian mailed the invite,Sensible,edin_semantics,emo_sem_emo_sem,1.08923215372488,2,2,2,1,1665326.91486186,89,A
51,3,16/9/93,22,f,74,The fruits mixed Jack,Non-sensible,edin_semantics,emo_sem_emo_sem,0.936944189248607,1,1,1,1,1665328.59661581,8,A
51,3,16/9/93,22,f,75,Tim sniffed the perfume,Sensible,edin_semantics,emo_sem_emo_sem,0.913691224530339,2,2,2,1,1665330.25495034,93,A
51,3,16/9/93,22,f,76,Fred lent the car,Sensible,edin_semantics,emo_sem_emo_sem,1.10225986945443,2,1,1,1,1665332.1014571,94,A
51,3,16/9/93,22,f,77,Joe iced the donut,Sensible,edin_semantics,emo_sem_emo_sem,0.901920737931505,2,2,2,1,1665333.74801249,119,A
51,3,16/9/93,22,f,78,The room tidied Sam,Non-sensible,edin_semantics,emo_sem_emo_sem,0.913659473182634,1,1,1,1,1665335.40633355,2,A
51,3,16/9/93,22,f,79,The shirt ironed Josh,Non-sensible,edin_semantics,emo_sem_emo_sem,1.00788847100921,1,2,2,1,1665337.15875211,55,A
51,3,16/9/93,22,f,80,Liz weighed the sugar,Sensible,edin_semantics,emo_sem_emo_sem,1.23120218049735,1,2,2,1,1665339.13465853,139,A
51,3,16/9/93,22,f,81,The box lifted Kate,Non-sensible,edin_semantics,emo_sem_emo_sem,0.83131417632103,2,2,2,1,1665340.71062468,69,A
51,3,16/9/93,22,f,82,The gun carried Ryan,Non-sensible,edin_semantics,emo_sem_emo_sem,1.84286689269356,1,2,2,1,1665343.29815989,75,A
51,3,16/9/93,22,f,83,The shelf dusted Jake,Non-sensible,edin_semantics,emo_sem_emo_sem,1.08992362977006,1,2,2,1,1665345.13283074,47,A
51,3,16/9/93,22,f,84,Luke fixed the radio,Sensible,edin_semantics,emo_sem_emo_sem,1.23134458065033,2,1,1,1,1665347.10873524,112,A
51,3,16/9/93,22,f,85,The photo took Beth,Non-sensible,edin_semantics,emo_sem_emo_sem,1.20776608353481,2,2,2,1,1665349.06105804,53,A
51,3,16/9/93,22,f,86,The puzzle solved Joe,Non-sensible,edin_semantics,emo_sem_emo_sem,1.13714637234807,2,1,1,1,1665350.94285926,34,A
51,3,16/9/93,22,f,87,The house built Kate,Non-sensible,edin_semantics,emo_sem_emo_sem,1.3258003287483,2,1,1,1,1665353.01281957,46,A
51,3,16/9/93,22,f,88,Joe entered the office,Sensible,edin_semantics,emo_sem_emo_sem,1.04299883753993,2,2,2,1,1665354.80053516,133,A
51,3,16/9/93,22,f,89,Ian dented the bowl,Sensible,edin_semantics,emo_sem_emo_sem,1.16096412786283,2,1,1,1,1665356.70584272,146,A
51,3,16/9/93,22,f,90,Andy pulled the rope,Sensible,edin_semantics,emo_sem_emo_sem,1.01973176118918,1,1,1,1,1665358.47001926,148,A
51,3,16/9/93,22,f,91,Tom offered the sweets,Sensible,edin_semantics,emo_sem_emo_sem,1.00825152778998,1,1,1,1,1665360.22241729,84,A
51,3,16/9/93,22,f,92,Lucy counted the shoes,Sensible,edin_semantics,emo_sem_emo_sem,1.67803357820958,1,2,2,1,1665362.64523337,123,A
51,3,16/9/93,22,f,93,The juice drank Matt,Non-sensible,edin_semantics,emo_sem_emo_sem,1.17262139962986,2,1,1,1,1665364.56230853,60,A
51,3,16/9/93,22,f,94,Jay squeezed the lemon,Sensible,edin_semantics,emo_sem_emo_sem,1.26698702480644,1,1,1,1,1665366.5734674,76,A
51,3,16/9/93,22,f,95,The dishes washed Mark,Non-sensible,edin_semantics,emo_sem_emo_sem,2.23088081739843,1,2,2,1,1665369.54903225,57,A
51,3,16/9/93,22,f,96,Tom visited the hospital,Sensible,edin_semantics,emo_sem_emo_sem,1.3139868658036,2,2,2,1,1665371.60728333,91,A
51,3,16/9/93,22,f,97,The bowl scrubbed Liz,Non-sensible,edin_semantics,emo_sem_emo_sem,0.996045501437038,2,1,1,1,1665373.34791313,56,A
51,3,16/9/93,22,f,98,The fence jumped Jon,Non-sensible,edin_semantics,emo_sem_emo_sem,2.14881358621642,1,2,2,1,1665376.2411407,17,A
51,3,16/9/93,22,f,99,Phil cancelled the party,Sensible,edin_semantics,emo_sem_emo_sem,1.41954599926248,2,1,1,1,1665378.40519338,82,A
51,3,16/9/93,22,f,100,The lesson taught Eve,Non-sensible,edin_semantics,emo_sem_emo_sem,1.5843921424821,2,2,2,1,1665380.73392511,15,A
51,3,16/9/93,22,f,101,The garden watered Jeff,Non-sensible,edin_semantics,emo_sem_emo_sem,1.14880749257281,1,1,1,1,1665382.62746859,54,A
51,3,16/9/93,22,f,102,Ella mashed the turnip,Sensible,edin_semantics,emo_sem_emo_sem,1.06665174243972,1,2,2,1,1665384.43867384,103,A
51,3,16/9/93,22,f,103,Zoe paid the debt,Sensible,edin_semantics,emo_sem_emo_sem,1.44302699691616,1,1,1,1,1665386.62625114,134,A
51,3,16/9/93,22,f,104,The laptop fixed Jen,Non-sensible,edin_semantics,emo_sem_emo_sem,1.34911230648868,2,2,2,1,1665388.7197476,37,A
51,3,16/9/93,22,f,105,The herbs chopped Phil,Non-sensible,edin_semantics,emo_sem_emo_sem,1.0780729628168,1,2,2,1,1665390.54275477,27,A
51,3,16/9/93,22,f,106,Phil solved the problem,Sensible,edin_semantics,emo_sem_emo_sem,1.33689345116727,2,2,2,1,1665392.62446568,109,A
51,3,16/9/93,22,f,107,The parcel mailed Rob,Non-sensible,edin_semantics,emo_sem_emo_sem,1.32570731965825,1,1,1,1,1665394.6944215,14,A
51,3,16/9/93,22,f,108,The jar labeled Liz,Non-sensible,edin_semantics,emo_sem_emo_sem,1.3485061423853,2,2,2,1,1665396.78791893,61,A
51,3,16/9/93,22,f,109,The handle pulled Tim,Non-sensible,edin_semantics,emo_sem_emo_sem,1.00819123233669,1,2,2,1,1665398.54037918,73,A
51,3,16/9/93,22,f,110,The bucket lent Max,Non-sensible,edin_semantics,emo_sem_emo_sem,0.972426913911477,1,2,2,1,1665400.25745325,19,A
51,3,16/9/93,22,f,111,The bushes trimmed Jon,Non-sensible,edin_semantics,emo_sem_emo_sem,1.56093744398095,1,1,1,1,1665402.56269275,32,A
51,3,16/9/93,22,f,112,The museum visited Mary,Non-sensible,edin_semantics,emo_sem_emo_sem,1.04332244582474,1,1,1,1,1665404.35034997,16,A
51,3,16/9/93,22,f,113,Lucy cut the ribbon,Sensible,edin_semantics,emo_sem_emo_sem,1.19588077859953,1,2,2,1,1665406.29095712,95,A
51,3,16/9/93,22,f,114,Leo carried the wallet,Sensible,edin_semantics,emo_sem_emo_sem,1.23128204024397,2,1,1,1,1665408.26687766,150,A
51,3,16/9/93,22,f,115,Rob measured the curtains,Sensible,edin_semantics,emo_sem_emo_sem,1.06660395488143,2,1,1,1,1665410.07806302,126,A
51,3,16/9/93,22,f,116,The table wiped Beth,Non-sensible,edin_semantics,emo_sem_emo_sem,0.926083590369672,2,1,1,1,1665411.74815072,40,A
51,3,16/9/93,22,f,117,Anna polished the trophy,Sensible,edin_semantics,emo_sem_emo_sem,1.0548928019125,1,1,1,1,1665413.54758933,104,A
51,3,16/9/93,22,f,118,The eggs whisked Dan,Non-sensible,edin_semantics,emo_sem_emo_sem,1.11439694045112,1,1,1,1,1665415.40585118,62,A
51,3,16/9/93,22,f,119,The plans cancelled Ian,Non-sensible,edin_semantics,emo_sem_emo_sem,1.12603400670923,1,2,2,1,1665417.27589026,7,A
51,3,16/9/93,22,f,120,The movie watched Ella,Non-sensible,edin_semantics,emo_sem_emo_sem,1.77298291702755,2,2,2,1,1665419.79279005,33,A
51,3,16/9/93,22,f,121,Jay sold the bed,Sensible,edin_semantics,emo_sem_emo_sem,1.5374676710926,1,2,2,1,1665422.07447318,113,A
51,3,16/9/93,22,f,122,Eve ironed the trousers,Sensible,edin_semantics,emo_sem_emo_sem,1.16191378491931,1,1,1,1,1665423.97977176,130,A
51,3,16/9/93,22,f,123,Ian pushed the button,Sensible,edin_semantics,emo_sem_emo_sem,1.18528766185045,2,2,2,1,1665425.90861805,101,A
51,3,16/9/93,22,f,124,Owen swallowed the gum,Sensible,edin_semantics,emo_sem_emo_sem,1.36215220927261,2,2,2,1,1665428.01386704,97,A
51,3,16/9/93,22,f,125,The jumper wore Joe,Non-sensible,edin_semantics,emo_sem_emo_sem,1.14986074250191,1,2,2,1,1665429.90739706,25,A
51,3,16/9/93,22,f,126,The folder carried Dan,Non-sensible,edin_semantics,emo_sem_emo_sem,1.52623343165033,2,1,1,1,1665432.1773049,30,A
51,3,16/9/93,22,f,127,The thread measured Amy,Non-sensible,edin_semantics,emo_sem_emo_sem,1.49015448521823,1,2,2,1,1665434.41196125,51,A
51,3,16/9/93,22,f,128,Jay painted the portrait,Sensible,edin_semantics,emo_sem_emo_sem,1.13755978271365,1,1,1,1,1665436.2937304,110,A
51,3,16/9/93,22,f,129,The letter typed Phil,Non-sensible,edin_semantics,emo_sem_emo_sem,1.36099440394901,2,2,2,1,1665438.39897138,49,A
51,3,16/9/93,22,f,130,Kate wore the dress,Sensible,edin_semantics,emo_sem_emo_sem,1.0198966122698,1,1,1,1,1665440.16313702,100,A
51,3,16/9/93,22,f,131,Adam watched the opera,Sensible,edin_semantics,emo_sem_emo_sem,1.16074571642093,2,1,1,1,1665442.06846318,108,A
51,3,16/9/93,22,f,132,The number dialed Tom,Non-sensible,edin_semantics,emo_sem_emo_sem,0.879016718361527,2,2,2,1,1665443.69153019,63,A
51,3,16/9/93,22,f,133,The papers filed Lara,Non-sensible,edin_semantics,emo_sem_emo_sem,1.00858892709948,1,1,1,1,1665445.44391732,24,A
51,3,16/9/93,22,f,134,Jane licked the plate,Sensible,edin_semantics,emo_sem_emo_sem,1.22005838435143,1,1,1,1,1665447.40800707,96,A
51,3,16/9/93,22,f,135,The lorry dented Lily,Non-sensible,edin_semantics,emo_sem_emo_sem,1.25507638300769,1,2,2,1,1665449.40741278,71,A
51,3,16/9/93,22,f,136,Lucy wiped the desk,Sensible,edin_semantics,emo_sem_emo_sem,1.86680235341191,2,2,2,1,1665452.01839018,115,A
51,3,16/9/93,22,f,137,Erin punched the monitor,Sensible,edin_semantics,emo_sem_emo_sem,1.58427636208944,1,2,2,1,1665454.34711004,125,A
51,3,16/9/93,22,f,138,Hugh kissed the rose,Sensible,edin_semantics,emo_sem_emo_sem,1.06662768847309,2,1,1,1,1665456.15832298,98,A
51,3,16/9/93,22,f,139,Tom grated the carrots,Sensible,edin_semantics,emo_sem_emo_sem,1.30171861918643,2,1,1,1,1665458.20479363,140,A
51,3,16/9/93,22,f,140,The milk sniffed Phil,Non-sensible,edin_semantics,emo_sem_emo_sem,1.11409738659859,2,1,1,1,1665460.06307602,18,A
51,3,16/9/93,22,f,141,Hugh dialed the hotline,Sensible,edin_semantics,emo_sem_emo_sem,1.24295919644646,1,1,1,1,1665462.05067403,138,A
51,3,16/9/93,22,f,142,Erin tidied the garage,Sensible,edin_semantics,emo_sem_emo_sem,1.914112332277,2,2,2,1,1665464.70871574,77,A
51,3,16/9/93,22,f,143,Kate hugged the pillow,Sensible,edin_semantics,emo_sem_emo_sem,0.913703091209754,2,1,1,1,1665466.36702493,86,A
51,3,16/9/93,22,f,144,The room searched Jen,Non-sensible,edin_semantics,emo_sem_emo_sem,1.06625372683629,2,1,1,1,1665468.17824365,10,A
51,3,16/9/93,22,f,145,The kettle got Lily,Non-sensible,edin_semantics,emo_sem_emo_sem,1.00762772420421,1,2,2,1,1665469.93067953,13,A
51,3,16/9/93,22,f,146,The toffee chewed Ben,Non-sensible,edin_semantics,emo_sem_emo_sem,1.33723052940331,1,2,2,1,1665472.0124177,31,A
51,3,16/9/93,22,f,147,Jack cleaned the bath,Sensible,edin_semantics,emo_sem_emo_sem,0.937011540867388,2,1,1,1,1665473.69427685,80,A
51,3,16/9/93,22,f,148,The paper cut Jon,Non-sensible,edin_semantics,emo_sem_emo_sem,0.937431686324999,1,1,1,1,1665475.37608276,20,A
51,3,16/9/93,22,f,149,The mirror kissed Max,Non-sensible,edin_semantics,emo_sem_emo_sem,1.07830741046928,1,2,2,1,1665477.19908511,23,A
51,3,16/9/93,22,f,150,Tim took the ticket,Sensible,edin_semantics,emo_sem_emo_sem,1.41913739964366,1,1,1,1,1665479.36316537,128,A
51,3,16/9/93,22,f,151,Max kicked the door,Sensible,edin_semantics,emo_sem_emo_sem,1.16068862797692,1,1,1,1,1665481.26842867,114,A
51,3,16/9/93,22,f,152,Josh taught the rules,Sensible,edin_semantics,emo_sem_emo_sem,1.5373926225584,2,1,1,1,1665483.55009801,90,A
51,3,16/9/93,22,f,153,The teeth brushed Carl,Non-sensible,edin_semantics,emo_sem_emo_sem,0.925537401344627,2,1,1,1,1665485.22022644,72,A
51,3,16/9/93,22,f,154,John carried the kettle,Sensible,edin_semantics,emo_sem_emo_sem,1.44310364965349,1,2,2,1,1665487.40777102,105,A
51,3,16/9/93,22,f,155,The sofa sold Carl,Non-sensible,edin_semantics,emo_sem_emo_sem,0.948757331818342,2,1,1,1,1665489.10138109,38,A
51,3,16/9/93,22,f,156,The cake iced Mary,Non-sensible,edin_semantics,emo_sem_emo_sem,0.971988166682422,2,1,1,1,1665490.8185161,44,A
51,3,16/9/93,22,f,157,The tree hugged Amy,Non-sensible,edin_semantics,emo_sem_emo_sem,1.26648445404135,1,2,2,1,1665492.82970063,11,A
51,3,16/9/93,22,f,158,Fred chopped the carrots,Sensible,edin_semantics,emo_sem_emo_sem,0.972631854936481,1,1,1,1,1665494.54682793,102,A
51,3,16/9/93,22,f,159,The lolly sucked Leah,Non-sensible,edin_semantics,emo_sem_emo_sem,1.23188403458335,1,1,1,1,1665496.52271351,12,A
51,3,16/9/93,22,f,160,The pill swallowed Luke,Non-sensible,edin_semantics,emo_sem_emo_sem,1.12533579580486,1,1,1,1,1665498.39275483,22,A
51,3,16/9/93,22,f,161,The hill climbed Luke,Non-sensible,edin_semantics,emo_sem_emo_sem,1.00724542397074,1,1,1,1,1665500.14512048,68,A
51,3,16/9/93,22,f,162,The lever pulled Hugh,Non-sensible,edin_semantics,emo_sem_emo_sem,0.937102625845,1,2,2,1,1665501.82696647,45,A
51,3,16/9/93,22,f,163,Adam chewed the fat,Sensible,edin_semantics,emo_sem_emo_sem,0.866965279914439,1,1,1,1,1665503.43824407,106,A
51,3,16/9/93,22,f,164,Ryan stroked the blanket,Sensible,edin_semantics,emo_sem_emo_sem,0.843160353135318,1,1,1,1,1665505.02605222,116,A
51,3,16/9/93,22,f,165,Tom whisked the cream,Sensible,edin_semantics,emo_sem_emo_sem,1.2187020520214,2,2,2,1,1665506.99017629,137,A
51,3,16/9/93,22,f,166,The book read Sean,Non-sensible,edin_semantics,emo_sem_emo_sem,1.1252075068187,1,1,1,1,1665508.86017945,4,A
51,3,16/9/93,22,f,167,The ball squeezed Josh,Non-sensible,edin_semantics,emo_sem_emo_sem,0.843654264695942,2,2,2,1,1665510.44792634,1,A
51,3,16/9/93,22,f,168,Max searched the internet,Sensible,edin_semantics,emo_sem_emo_sem,0.949025455163792,2,2,2,1,1665512.14156367,85,A
51,3,16/9/93,22,f,169,Josh scrubbed the pot,Sensible,edin_semantics,emo_sem_emo_sem,1.19591413368471,1,2,2,1,1665514.08210796,131,A
51,3,16/9/93,22,f,170,The wine stored Leo,Non-sensible,edin_semantics,emo_sem_emo_sem,0.996099703479558,1,1,1,1,1665515.82278619,52,A
51,3,16/9/93,22,f,171,Emma pulled the rope,Sensible,edin_semantics,emo_sem_emo_sem,0.819875637069345,1,1,1,1,1665517.38701071,120,A
51,3,16/9/93,22,f,172,Fred stored the rice,Sensible,edin_semantics,emo_sem_emo_sem,0.983881489606574,1,2,2,1,1665519.11589375,127,A
51,3,16/9/93,22,f,173,Jack posted the gift,Sensible,edin_semantics,emo_sem_emo_sem,1.1714931007009,1,2,2,1,1665521.03308982,111,A
