subject_column,AssignedList_column,subject_dob_column,subject_age_column,subject_gender_column,trialnum_column,Stim_column,Type_column,Experiment_column,OrderGroup_column,ReactionTime_column,StimSide_column,StimPosition_column,Response_column,Valid_column,TrialEndSecs_column,PairID_column,List_column
53,2,25/6/95,20,f,1,The eggs whisked Dan,Non-sensible,edin_semantics,sem_emo_sem_emo,7.39956041614641,2,1,1,1,84365.3753242917,62,A
53,2,25/6/95,20,f,2,Hugh dialed the hotline,Sensible,edin_semantics,sem_emo_sem_emo,1.89903458971821,2,1,1,1,84368.0215635342,138,A
53,2,25/6/95,20,f,3,Tom grated the carrots,Sensible,edin_semantics,sem_emo_sem_emo,1.61756494414294,2,1,1,1,84370.3855704503,140,A
53,2,25/6/95,20,f,4,The table wiped Beth,Non-sensible,edin_semantics,sem_emo_sem_emo,1.27658791083377,2,1,1,1,84372.4085300946,40,A
53,2,25/6/95,20,f,5,The flour weighed Jen,Non-sensible,edin_semantics,sem_emo_sem_emo,1.23217570268025,2,1,1,1,84374.3844411823,64,A
53,2,25/6/95,20,f,6,The card posted Erin,Non-sensible,edin_semantics,sem_emo_sem_emo,6.84169561465387,1,1,1,1,84381.9704007346,36,A
53,2,25/6/95,20,f,7,Max kicked the door,Sensible,edin_semantics,sem_emo_sem_emo,3.47807068044494,2,1,1,1,84386.1926654349,114,A
53,2,25/6/95,20,f,8,The lorry dented Lily,Non-sensible,edin_semantics,sem_emo_sem_emo,5.14820960830548,1,2,2,1,84392.0850979282,71,A
53,2,25/6/95,20,f,9,The shirt ironed Josh,Non-sensible,edin_semantics,sem_emo_sem_emo,2.37265138076327,1,2,2,1,84395.2018217745,55,A
53,2,25/6/95,20,f,10,The shelf dusted Jake,Non-sensible,edin_semantics,sem_emo_sem_emo,1.24363676250505,1,2,2,1,84397.1894447279,47,A
53,2,25/6/95,20,f,11,Luke fixed the radio,Sensible,edin_semantics,sem_emo_sem_emo,2.18451809186081,1,1,1,1,84400.1179830074,112,A
53,2,25/6/95,20,f,12,Rob measured the curtains,Sensible,edin_semantics,sem_emo_sem_emo,1.38417883036891,1,1,1,1,84402.2467766471,126,A
53,2,25/6/95,20,f,13,John carried the kettle,Sensible,edin_semantics,sem_emo_sem_emo,1.26712752517778,2,2,2,1,84404.2579426411,105,A
53,2,25/6/95,20,f,14,Hugh kissed the rose,Sensible,edin_semantics,sem_emo_sem_emo,2.44289563427446,2,1,1,1,84407.4452353133,98,A
53,2,25/6/95,20,f,15,Jay squeezed the lemon,Sensible,edin_semantics,sem_emo_sem_emo,10.80554460641,1,1,1,1,84418.9947933722,76,A
53,2,25/6/95,20,f,16,The ball squeezed Josh,Non-sensible,edin_semantics,sem_emo_sem_emo,2.14952393385465,2,2,2,1,84421.8880372963,1,A
53,2,25/6/95,20,f,17,Josh crushed the ice,Sensible,edin_semantics,sem_emo_sem_emo,1.64471548444999,2,2,2,1,84424.2755683303,81,A
53,2,25/6/95,20,f,18,Fred served the dessert,Sensible,edin_semantics,sem_emo_sem_emo,2.18517685825645,2,2,2,1,84427.2041223253,145,A
53,2,25/6/95,20,f,19,The handle pulled Tim,Non-sensible,edin_semantics,sem_emo_sem_emo,1.62024587317137,2,2,2,1,84429.5681507299,73,A
53,2,25/6/95,20,f,20,The trolley pushed Matt,Non-sensible,edin_semantics,sem_emo_sem_emo,2.60829827557609,1,1,1,1,84432.9200772687,26,A
53,2,25/6/95,20,f,21,Jack posted the gift,Sensible,edin_semantics,sem_emo_sem_emo,7.68908407418348,1,2,2,1,84441.3529162921,111,A
53,2,25/6/95,20,f,22,The room tidied Sam,Non-sensible,edin_semantics,sem_emo_sem_emo,4.80693462272757,2,1,1,1,84446.9041918261,2,A
53,2,25/6/95,20,f,23,The story wrote Ewan,Non-sensible,edin_semantics,sem_emo_sem_emo,1.85525805586076,2,1,1,1,84449.5034293377,74,A
53,2,25/6/95,20,f,24,Tom visited the hospital,Sensible,edin_semantics,sem_emo_sem_emo,3.14848126123252,1,2,2,1,84453.3964384921,91,A
53,2,25/6/95,20,f,25,Lucy counted the shoes,Sensible,edin_semantics,sem_emo_sem_emo,2.13721295633877,2,2,2,1,84456.2779022364,123,A
53,2,25/6/95,20,f,26,Sam sucked the candy,Sensible,edin_semantics,sem_emo_sem_emo,1.23172380305186,2,2,2,1,84458.2538235872,87,A
53,2,25/6/95,20,f,27,The letter typed Phil,Non-sensible,edin_semantics,sem_emo_sem_emo,1.76072315487545,1,2,2,1,84460.758950836,49,A
53,2,25/6/95,20,f,28,The number dialed Tom,Non-sensible,edin_semantics,sem_emo_sem_emo,1.22013252942998,1,2,2,1,84462.7232655184,63,A
53,2,25/6/95,20,f,29,Beth washed the pan,Sensible,edin_semantics,sem_emo_sem_emo,1.69040962505096,1,1,1,1,84465.1576382423,132,A
53,2,25/6/95,20,f,30,The cake iced Mary,Non-sensible,edin_semantics,sem_emo_sem_emo,1.52525362024608,1,1,1,1,84467.4275730617,44,A
53,2,25/6/95,20,f,31,The scarf knitted Tom,Non-sensible,edin_semantics,sem_emo_sem_emo,1.52562149027654,2,1,1,1,84469.6974754879,66,A
53,2,25/6/95,20,f,32,The mirror kissed Max,Non-sensible,edin_semantics,sem_emo_sem_emo,1.25521007560019,2,2,2,1,84471.6969039583,23,A
53,2,25/6/95,20,f,33,Jane licked the plate,Sensible,edin_semantics,sem_emo_sem_emo,5.06582147430163,1,1,1,1,84477.5069419032,96,A
53,2,25/6/95,20,f,34,The spoon licked Will,Non-sensible,edin_semantics,sem_emo_sem_emo,3.32504155776405,1,2,2,1,84481.5763253344,21,A
53,2,25/6/95,20,f,35,Dan brushed the hair,Sensible,edin_semantics,sem_emo_sem_emo,1.54912187466107,2,2,2,1,84483.8697810644,147,A
53,2,25/6/95,20,f,36,Tom offered the sweets,Sensible,edin_semantics,sem_emo_sem_emo,4.17199704036466,1,1,1,1,84488.7859682759,84,A
53,2,25/6/95,20,f,37,Liam mixed the nuts,Sensible,edin_semantics,sem_emo_sem_emo,1.39620308094891,2,2,2,1,84490.9265369639,83,A
53,2,25/6/95,20,f,38,Joe iced the donut,Sensible,edin_semantics,sem_emo_sem_emo,1.41950012653251,1,2,2,1,84493.0905697944,119,A
53,2,25/6/95,20,f,39,The sofa sold Carl,Non-sensible,edin_semantics,sem_emo_sem_emo,2.41942379430111,1,1,1,1,84496.2543970411,38,A
53,2,25/6/95,20,f,40,Ryan stroked the blanket,Sensible,edin_semantics,sem_emo_sem_emo,5.06580672103155,2,1,1,1,84502.0644109317,116,A
53,2,25/6/95,20,f,41,Erin punched the monitor,Sensible,edin_semantics,sem_emo_sem_emo,3.05503938646871,1,2,2,1,84505.8633050124,125,A
53,2,25/6/95,20,f,42,Liam sliced the onion,Sensible,edin_semantics,sem_emo_sem_emo,3.04307799774688,1,1,1,1,84509.6504246862,78,A
53,2,25/6/95,20,f,43,The lolly sucked Leah,Non-sensible,edin_semantics,sem_emo_sem_emo,5.94790838463814,1,1,1,1,84516.3425537108,12,A
53,2,25/6/95,20,f,44,Jay sold the bed,Sensible,edin_semantics,sem_emo_sem_emo,1.70185721447342,1,2,2,1,84518.7888791638,113,A
53,2,25/6/95,20,f,45,Rose built the shed,Sensible,edin_semantics,sem_emo_sem_emo,1.40813784959028,2,2,2,1,84520.941186979,121,A
53,2,25/6/95,20,f,46,Lucy cut the ribbon,Sensible,edin_semantics,sem_emo_sem_emo,1.37257280346239,2,2,2,1,84523.0582100605,95,A
53,2,25/6/95,20,f,47,The towels passed Phil,Non-sensible,edin_semantics,sem_emo_sem_emo,1.11376388774079,2,2,2,1,84524.9164928612,43,A
53,2,25/6/95,20,f,48,Jack drank the beer,Sensible,edin_semantics,sem_emo_sem_emo,0.86717903339013,2,2,2,1,84526.527786375,135,A
53,2,25/6/95,20,f,49,The floor cleaned Tim,Non-sensible,edin_semantics,sem_emo_sem_emo,0.772794551812694,2,2,2,1,84528.044994963,5,A
53,2,25/6/95,20,f,50,Fred lent the car,Sensible,edin_semantics,sem_emo_sem_emo,2.25500449172978,2,1,1,1,84531.0441017477,94,A
53,2,25/6/95,20,f,51,The dishes washed Mark,Non-sensible,edin_semantics,sem_emo_sem_emo,9.34667853770952,1,2,2,1,84541.1352719368,57,A
53,2,25/6/95,20,f,52,Alex dusted the house,Sensible,edin_semantics,sem_emo_sem_emo,1.45469120886992,2,1,1,1,84543.3346061786,122,A
53,2,25/6/95,20,f,53,Kate wore the dress,Sensible,edin_semantics,sem_emo_sem_emo,1.09029717932572,2,1,1,1,84545.169353636,100,A
53,2,25/6/95,20,f,54,The teeth brushed Carl,Non-sensible,edin_semantics,sem_emo_sem_emo,8.59365339201759,1,1,1,1,84554.5078303077,72,A
53,2,25/6/95,20,f,55,Erin tidied the garage,Sensible,edin_semantics,sem_emo_sem_emo,4.28950249025365,2,2,2,1,84559.5415774921,77,A
53,2,25/6/95,20,f,56,Bill trimmed the hair,Sensible,edin_semantics,sem_emo_sem_emo,0.984756966834539,2,2,2,1,84561.2704887091,107,A
53,2,25/6/95,20,f,57,Ian mailed the invite,Sensible,edin_semantics,sem_emo_sem_emo,2.19602373227826,1,2,2,1,84564.2107920944,89,A
53,2,25/6/95,20,f,58,Tim took the ticket,Sensible,edin_semantics,sem_emo_sem_emo,1.30190487400978,2,1,1,1,84566.2572761774,128,A
53,2,25/6/95,20,f,59,The box lifted Kate,Non-sensible,edin_semantics,sem_emo_sem_emo,4.57178132163244,1,2,2,1,84571.5733656965,69,A
53,2,25/6/95,20,f,60,The parcel mailed Rob,Non-sensible,edin_semantics,sem_emo_sem_emo,1.31400577751629,2,1,1,1,84573.6316591452,14,A
53,2,25/6/95,20,f,61,The juice drank Matt,Non-sensible,edin_semantics,sem_emo_sem_emo,1.45448402137845,2,1,1,1,84575.8308888311,60,A
53,2,25/6/95,20,f,62,The pen described John,Non-sensible,edin_semantics,sem_emo_sem_emo,1.47866883006645,2,1,1,1,84578.0538177501,42,A
53,2,25/6/95,20,f,63,The lever pulled Hugh,Non-sensible,edin_semantics,sem_emo_sem_emo,4.8656523887912,2,2,2,1,84583.663898287,45,A
53,2,25/6/95,20,f,64,The house built Kate,Non-sensible,edin_semantics,sem_emo_sem_emo,2.1845206576545,2,1,1,1,84586.5924253412,46,A
53,2,25/6/95,20,f,65,Leo passed the salt,Sensible,edin_semantics,sem_emo_sem_emo,5.94793340109754,1,1,1,1,84593.2846162654,118,A
53,2,25/6/95,20,f,66,The pill swallowed Luke,Non-sensible,edin_semantics,sem_emo_sem_emo,2.51372456701938,1,1,1,1,84596.5424437667,22,A
53,2,25/6/95,20,f,67,The thread measured Amy,Non-sensible,edin_semantics,sem_emo_sem_emo,7.5475676478236,1,2,2,1,84604.8341153111,51,A
53,2,25/6/95,20,f,68,Josh scrubbed the pot,Sensible,edin_semantics,sem_emo_sem_emo,1.25566133378015,2,2,2,1,84606.8335328769,131,A
53,2,25/6/95,20,f,69,Tim sniffed the perfume,Sensible,edin_semantics,sem_emo_sem_emo,3.8311425235006,1,2,2,1,84611.4086532525,93,A
53,2,25/6/95,20,f,70,The jumper wore Joe,Non-sensible,edin_semantics,sem_emo_sem_emo,6.10052954683488,2,2,2,1,84618.2536837517,25,A
53,2,25/6/95,20,f,71,The cheese grated Andy,Non-sensible,edin_semantics,sem_emo_sem_emo,1.52562726331234,2,2,2,1,84620.5236230612,65,A
53,2,25/6/95,20,f,72,Joe entered the office,Sensible,edin_semantics,sem_emo_sem_emo,1.51349685322202,2,2,2,1,84622.7817860395,133,A
53,2,25/6/95,20,f,73,The puzzle solved Joe,Non-sensible,edin_semantics,sem_emo_sem_emo,5.24215630210529,2,1,1,1,84628.7682309749,34,A
53,2,25/6/95,20,f,74,Ian dented the bowl,Sensible,edin_semantics,sem_emo_sem_emo,9.20580933171732,1,1,1,1,84638.7182356094,146,A
53,2,25/6/95,20,f,75,The money offered Matt,Non-sensible,edin_semantics,sem_emo_sem_emo,2.65509730916529,1,2,2,1,84642.1172495124,9,A
53,2,25/6/95,20,f,76,Erin described the church,Sensible,edin_semantics,sem_emo_sem_emo,1.36115375845111,2,2,2,1,84644.2225074881,117,A
53,2,25/6/95,20,f,77,The paper cut Jon,Non-sensible,edin_semantics,sem_emo_sem_emo,4.58346496366721,1,1,1,1,84649.5503399831,20,A
53,2,25/6/95,20,f,78,Anna polished the trophy,Sensible,edin_semantics,sem_emo_sem_emo,1.42000558701693,2,1,1,1,84651.7144488252,104,A
53,2,25/6/95,20,f,79,Owen swallowed the gum,Sensible,edin_semantics,sem_emo_sem_emo,1.71416306040192,1,2,2,1,84654.1725108397,97,A
53,2,25/6/95,20,f,80,Jay painted the portrait,Sensible,edin_semantics,sem_emo_sem_emo,1.29031488328474,2,1,1,1,84656.2071990273,110,A
53,2,25/6/95,20,f,81,Ben got the radio,Sensible,edin_semantics,sem_emo_sem_emo,2.70223278187041,1,1,1,1,84659.6532351876,88,A
53,2,25/6/95,20,f,82,Phil solved the problem,Sensible,edin_semantics,sem_emo_sem_emo,5.84222288434103,2,2,2,1,84666.2395577991,109,A
53,2,25/6/95,20,f,83,Zoe paid the debt,Sensible,edin_semantics,sem_emo_sem_emo,1.31430052255746,2,1,1,1,84668.2978066671,134,A
53,2,25/6/95,20,f,84,The tree hugged Amy,Non-sensible,edin_semantics,sem_emo_sem_emo,1.76088672393234,2,2,2,1,84670.8029226905,11,A
53,2,25/6/95,20,f,85,Kate hugged the pillow,Sensible,edin_semantics,sem_emo_sem_emo,1.09100501643843,2,1,1,1,84672.637657319,86,A
53,2,25/6/95,20,f,86,Luke read the poster,Sensible,edin_semantics,sem_emo_sem_emo,3.10167741678015,1,2,2,1,84676.4835845615,79,A
53,2,25/6/95,20,f,87,The wall punched Jane,Non-sensible,edin_semantics,sem_emo_sem_emo,6.77106232332881,1,1,1,1,84683.9990070396,50,A
53,2,25/6/95,20,f,88,The milk sniffed Phil,Non-sensible,edin_semantics,sem_emo_sem_emo,1.3260265001154,2,1,1,1,84686.0689950349,18,A
53,2,25/6/95,20,f,89,The papers filed Lara,Non-sensible,edin_semantics,sem_emo_sem_emo,4.65425476811652,1,1,1,1,84691.467396035,24,A
53,2,25/6/95,20,f,90,Alex wrote the report,Sensible,edin_semantics,sem_emo_sem_emo,4.4426108316693,2,2,2,1,84696.6540985757,149,A
53,2,25/6/95,20,f,91,Ian pushed the button,Sensible,edin_semantics,sem_emo_sem_emo,1.24337184475735,2,2,2,1,84698.6417683548,101,A
53,2,25/6/95,20,f,92,Adam chewed the fat,Sensible,edin_semantics,sem_emo_sem_emo,1.20794887922239,2,1,1,1,84700.5941184413,106,A
53,2,25/6/95,20,f,93,The bucket lent Max,Non-sensible,edin_semantics,sem_emo_sem_emo,1.27861039420532,2,2,2,1,84702.6170873866,19,A
53,2,25/6/95,20,f,94,The sheets counted Bill,Non-sensible,edin_semantics,sem_emo_sem_emo,6.28911569753836,1,1,1,1,84709.6502652866,48,A
53,2,25/6/95,20,f,95,Luke watered the plants,Sensible,edin_semantics,sem_emo_sem_emo,1.27890193200437,1,2,2,1,84711.6732111398,129,A
53,2,25/6/95,20,f,96,The bike kicked Matt,Non-sensible,edin_semantics,sem_emo_sem_emo,1.49076363981294,1,2,2,1,84713.90784551,39,A
53,2,25/6/95,20,f,97,The jar labeled Liz,Non-sensible,edin_semantics,sem_emo_sem_emo,1.20836325417622,1,2,2,1,84715.8602308761,61,A
53,2,25/6/95,20,f,98,Phil cancelled the party,Sensible,edin_semantics,sem_emo_sem_emo,1.31430982354505,2,1,1,1,84717.9184181653,82,A
53,2,25/6/95,20,f,99,The fur stroked Rob,Non-sensible,edin_semantics,sem_emo_sem_emo,3.30190647763084,2,2,2,1,84721.9642794029,41,A
53,2,25/6/95,20,f,100,Ryan knitted the socks,Sensible,edin_semantics,sem_emo_sem_emo,1.2553630607872,2,2,2,1,84723.9637101184,141,A
53,2,25/6/95,20,f,101,Max searched the internet,Sensible,edin_semantics,sem_emo_sem_emo,1.64320198951464,2,2,2,1,84726.3512360209,85,A
53,2,25/6/95,20,f,102,Fred stored the rice,Sensible,edin_semantics,sem_emo_sem_emo,6.13628189556766,1,2,2,1,84733.2315525366,127,A
53,2,25/6/95,20,f,103,The ham ate Tim,Non-sensible,edin_semantics,sem_emo_sem_emo,1.89030641617137,2,2,2,1,84735.8660911388,67,A
53,2,25/6/95,20,f,104,The room entered Ryan,Non-sensible,edin_semantics,sem_emo_sem_emo,4.61934688476322,1,1,1,1,84741.2291907276,58,A
53,2,25/6/95,20,f,105,The plans cancelled Ian,Non-sensible,edin_semantics,sem_emo_sem_emo,1.17262886595563,2,2,2,1,84743.146268268,7,A
53,2,25/6/95,20,f,106,The fruits mixed Jack,Non-sensible,edin_semantics,sem_emo_sem_emo,2.03122661724046,1,1,1,1,84745.9219650482,8,A
53,2,25/6/95,20,f,107,Fred chopped the carrots,Sensible,edin_semantics,sem_emo_sem_emo,1.45518287822779,2,1,1,1,84748.1212838953,102,A
53,2,25/6/95,20,f,108,The toffee chewed Ben,Non-sensible,edin_semantics,sem_emo_sem_emo,1.46671962883556,2,2,2,1,84750.3323925439,31,A
53,2,25/6/95,20,f,109,The hill climbed Luke,Non-sensible,edin_semantics,sem_emo_sem_emo,1.34955414601427,2,1,1,1,84752.4258892625,68,A
53,2,25/6/95,20,f,110,The coins polished Jon,Non-sensible,edin_semantics,sem_emo_sem_emo,1.27879096161632,2,2,2,1,84754.4488357571,29,A
53,2,25/6/95,20,f,111,The fence jumped Jon,Non-sensible,edin_semantics,sem_emo_sem_emo,1.29073855922616,2,2,2,1,84756.4835290763,17,A
53,2,25/6/95,20,f,112,Liz weighed the sugar,Sensible,edin_semantics,sem_emo_sem_emo,2.77219479857013,1,2,2,1,84760.0001414391,139,A
53,2,25/6/95,20,f,113,Sara jumped the hedge,Sensible,edin_semantics,sem_emo_sem_emo,2.09034625005734,2,1,1,1,84762.8346153192,92,A
53,2,25/6/95,20,f,114,The dish served Kate,Non-sensible,edin_semantics,sem_emo_sem_emo,4.63077394786524,2,1,2,0,84768.2094861077,70,A
53,2,25/6/95,20,f,115,Mike ate the steak,Sensible,edin_semantics,sem_emo_sem_emo,3.71318389107182,1,1,1,1,84772.6670093064,142,A
53,2,25/6/95,20,f,116,Ella mashed the turnip,Sensible,edin_semantics,sem_emo_sem_emo,3.41940038146276,1,2,2,1,84776.8304837571,103,A
53,2,25/6/95,20,f,117,The wine stored Leo,Non-sensible,edin_semantics,sem_emo_sem_emo,1.64337453883491,2,1,1,1,84779.2179856053,52,A
53,2,25/6/95,20,f,118,The garden watered Jeff,Non-sensible,edin_semantics,sem_emo_sem_emo,1.87855221492646,1,1,1,1,84781.8407619881,54,A
53,2,25/6/95,20,f,119,Jack cleaned the bath,Sensible,edin_semantics,sem_emo_sem_emo,8.49997450246883,1,1,1,1,84791.0851181337,80,A
53,2,25/6/95,20,f,120,The bill paid Mike,Non-sensible,edin_semantics,sem_emo_sem_emo,3.04240351589397,1,2,2,1,84794.8721964343,59,A
53,2,25/6/95,20,f,121,Josh taught the rules,Sensible,edin_semantics,sem_emo_sem_emo,1.54923092070385,2,1,1,1,84797.1656351659,90,A
53,2,25/6/95,20,f,122,The room searched Jen,Non-sensible,edin_semantics,sem_emo_sem_emo,1.07853079058987,2,1,1,1,84798.9886608152,10,A
53,2,25/6/95,20,f,123,The kettle got Lily,Non-sensible,edin_semantics,sem_emo_sem_emo,0.996381274992018,2,2,2,1,84800.7293140459,13,A
53,2,25/6/95,20,f,124,Lucy wiped the desk,Sensible,edin_semantics,sem_emo_sem_emo,3.24281442705251,1,2,2,1,84804.7163763743,115,A
53,2,25/6/95,20,f,125,The potatoes mashed Will,Non-sensible,edin_semantics,sem_emo_sem_emo,1.32582284059026,2,1,1,1,84806.7863339009,28,A
53,2,25/6/95,20,f,126,Amy lifted the crate,Sensible,edin_semantics,sem_emo_sem_emo,1.43128287217405,1,1,1,1,84808.9621632682,144,A
53,2,25/6/95,20,f,127,The movie watched Ella,Non-sensible,edin_semantics,sem_emo_sem_emo,1.26668236074329,2,2,2,1,84810.9733449777,33,A
53,2,25/6/95,20,f,128,Emma pulled the rope,Sensible,edin_semantics,sem_emo_sem_emo,1.16058440982306,2,1,1,1,84812.8786593366,120,A
53,2,25/6/95,20,f,129,The picture painted Ryan,Non-sensible,edin_semantics,sem_emo_sem_emo,1.25474887498422,2,2,2,1,84814.8780874864,35,A
53,2,25/6/95,20,f,130,The herbs chopped Phil,Non-sensible,edin_semantics,sem_emo_sem_emo,7.33569182819338,1,2,2,1,84822.9580377999,27,A
53,2,25/6/95,20,f,131,Eve typed the message,Sensible,edin_semantics,sem_emo_sem_emo,1.24329134312575,2,1,1,1,84824.9456799967,124,A
53,2,25/6/95,20,f,132,Tom whisked the cream,Sensible,edin_semantics,sem_emo_sem_emo,0.902668068010826,2,2,2,1,84826.5922794119,137,A
53,2,25/6/95,20,f,133,The bushes trimmed Jon,Non-sensible,edin_semantics,sem_emo_sem_emo,4.59615182928974,1,1,1,1,84831.9318914453,32,A
53,2,25/6/95,20,f,134,Ian filed the report,Sensible,edin_semantics,sem_emo_sem_emo,1.19641116644198,2,2,2,1,84833.8724805954,99,A
53,2,25/6/95,20,f,135,Eve ironed the trousers,Sensible,edin_semantics,sem_emo_sem_emo,6.18347413635638,1,1,1,1,84840.7998382911,130,A
53,2,25/6/95,20,f,136,The garlic crushed Erin,Non-sensible,edin_semantics,sem_emo_sem_emo,6.73620318998292,1,1,1,1,84848.2800145224,6,A
53,2,25/6/95,20,f,137,Adam watched the opera,Sensible,edin_semantics,sem_emo_sem_emo,1.43151603826846,2,1,1,1,84850.455809893,108,A
53,2,25/6/95,20,f,138,The museum visited Mary,Non-sensible,edin_semantics,sem_emo_sem_emo,1.53738242671534,1,1,1,1,84852.7374934612,16,A
53,2,25/6/95,20,f,139,The gun carried Ryan,Non-sensible,edin_semantics,sem_emo_sem_emo,1.72576716296317,2,2,2,1,84855.2073494467,75,A
53,2,25/6/95,20,f,140,The lesson taught Eve,Non-sensible,edin_semantics,sem_emo_sem_emo,1.28997619909933,2,2,2,1,84857.2420466146,15,A
53,2,25/6/95,20,f,141,The laptop fixed Jen,Non-sensible,edin_semantics,sem_emo_sem_emo,12.8398658861843,1,2,2,1,84870.8262809943,37,A
53,2,25/6/95,20,f,142,The book read Sean,Non-sensible,edin_semantics,sem_emo_sem_emo,5.34823533034069,1,1,2,0,84876.9186317672,4,A
53,2,25/6/95,20,f,143,The folder carried Dan,Non-sensible,edin_semantics,sem_emo_sem_emo,10.370082384281,1,1,1,1,84888.0329710332,30,A
53,2,25/6/95,20,f,144,Andy pulled the rope,Sensible,edin_semantics,sem_emo_sem_emo,2.05472539801849,2,1,1,1,84890.8321322767,148,A
53,2,25/6/95,20,f,145,Ian labeled the box,Sensible,edin_semantics,sem_emo_sem_emo,12.2399850029615,1,1,1,1,84903.8165621054,136,A
53,2,25/6/95,20,f,146,The tomato sliced Liz,Non-sensible,edin_semantics,sem_emo_sem_emo,1.37261417681293,2,2,2,1,84905.933602506,3,A
53,2,25/6/95,20,f,147,Leo carried the wallet,Sensible,edin_semantics,sem_emo_sem_emo,5.9358135748771,2,1,1,1,84912.6140007421,150,A
53,2,25/6/95,20,f,148,Ben climbed the stairs,Sensible,edin_semantics,sem_emo_sem_emo,7.48846020252677,2,2,2,1,84920.8468432293,143,A
53,2,25/6/95,20,f,149,The photo took Beth,Non-sensible,edin_semantics,sem_emo_sem_emo,4.46619588711474,1,2,2,1,84926.0571314669,53,A
53,2,25/6/95,20,f,150,The bowl scrubbed Liz,Non-sensible,edin_semantics,sem_emo_sem_emo,4.52471031437744,1,1,1,1,84931.3260896827,56,A
53,2,25/6/95,20,f,151,Sam tidied the room,Sensible,edin_semantics,sem_emo_sem_emo,1.14211008582788,2,2,2,1,84947.2626098118,2,B
53,2,25/6/95,20,f,152,Amy hugged the tree,Sensible,edin_semantics,sem_emo_sem_emo,4.23928935335425,1,1,1,1,84952.2493267209,11,B
53,2,25/6/95,20,f,153,The plate licked Jane,Non-sensible,edin_semantics,sem_emo_sem_emo,1.14822949316294,2,2,2,1,84954.1428823884,96,B
53,2,25/6/95,20,f,154,Mark washed the dishes,Sensible,edin_semantics,sem_emo_sem_emo,1.21901544893626,2,1,1,1,84956.1070453686,57,B
53,2,25/6/95,20,f,155,Tom knitted the scarf,Sensible,edin_semantics,sem_emo_sem_emo,4.37147528711648,1,2,2,1,84961.2231579157,66,B
53,2,25/6/95,20,f,156,The salt passed Leo,Non-sensible,edin_semantics,sem_emo_sem_emo,2.56009383090714,1,2,2,1,84964.5281074193,118,B
53,2,25/6/95,20,f,157,Matt offered the money,Sensible,edin_semantics,sem_emo_sem_emo,1.12531956103339,2,1,1,1,84966.3980937469,9,B
53,2,25/6/95,20,f,158,Ewan wrote the story,Sensible,edin_semantics,sem_emo_sem_emo,2.20753835294454,1,2,2,1,84969.3501840473,74,B
53,2,25/6/95,20,f,159,The cream whisked Tom,Non-sensible,edin_semantics,sem_emo_sem_emo,1.59598120431474,2,1,1,1,84971.6906764671,137,B
53,2,25/6/95,20,f,160,Rob mailed the parcel,Sensible,edin_semantics,sem_emo_sem_emo,1.24285932835483,2,2,2,1,84973.6783420768,14,B
53,2,25/6/95,20,f,161,The invite mailed Ian,Non-sensible,edin_semantics,sem_emo_sem_emo,1.66668024395767,1,1,1,1,84976.0894174343,89,B
53,2,25/6/95,20,f,162,The nuts mixed Liam,Non-sensible,edin_semantics,sem_emo_sem_emo,4.08897419425193,2,1,1,1,84980.9232283787,83,B
53,2,25/6/95,20,f,163,Phil sniffed the milk,Sensible,edin_semantics,sem_emo_sem_emo,1.47823489095026,2,2,2,1,84983.1461223388,18,B
53,2,25/6/95,20,f,164,The plants watered Luke,Non-sensible,edin_semantics,sem_emo_sem_emo,1.19571808262845,2,1,1,1,84985.0867018672,129,B
53,2,25/6/95,20,f,165,The beer drank Jack,Non-sensible,edin_semantics,sem_emo_sem_emo,2.52524656432797,1,1,1,1,84988.3565006997,135,B
53,2,25/6/95,20,f,166,Carl sold the sofa,Sensible,edin_semantics,sem_emo_sem_emo,1.37226779527555,2,2,2,1,84990.4733441759,38,B
53,2,25/6/95,20,f,167,The ice crushed Josh,Non-sensible,edin_semantics,sem_emo_sem_emo,2.01928190614854,2,1,1,1,84993.2372803404,81,B
53,2,25/6/95,20,f,168,The pillow hugged Kate,Non-sensible,edin_semantics,sem_emo_sem_emo,3.38326861664245,1,2,2,1,84997.3654395887,86,B
53,2,25/6/95,20,f,169,Jen searched the room,Sensible,edin_semantics,sem_emo_sem_emo,1.19589255629398,2,2,2,1,84999.3060595282,10,B
53,2,25/6/95,20,f,170,The candy sucked Sam,Non-sensible,edin_semantics,sem_emo_sem_emo,1.38412462807901,2,1,1,1,85001.4348422633,87,B
53,2,25/6/95,20,f,171,Jake dusted the shelf,Sensible,edin_semantics,sem_emo_sem_emo,1.2664302719495,2,1,1,1,85003.4460117853,47,B
53,2,25/6/95,20,f,172,Ella watched the movie,Sensible,edin_semantics,sem_emo_sem_emo,1.7840715162456,1,1,1,1,85005.9746673214,33,B
53,2,25/6/95,20,f,173,Jon polished the coins,Sensible,edin_semantics,sem_emo_sem_emo,2.75974430626957,1,1,1,1,85009.4795341425,29,B
53,2,25/6/95,20,f,174,The button pushed Ian,Non-sensible,edin_semantics,sem_emo_sem_emo,2.30176984934951,1,1,1,1,85012.5256930117,101,B
53,2,25/6/95,20,f,175,Jack mixed the fruits,Sensible,edin_semantics,sem_emo_sem_emo,5.62994038709439,2,2,2,1,85018.9002905436,8,B
53,2,25/6/95,20,f,176,Mary visited the museum,Sensible,edin_semantics,sem_emo_sem_emo,7.15900035569211,2,2,2,1,85026.8038932003,16,B
53,2,25/6/95,20,f,177,Luke swallowed the pill,Sensible,edin_semantics,sem_emo_sem_emo,16.8265619482554,1,2,2,1,85044.3751353855,22,B
53,2,25/6/95,20,f,178,The turnip mashed Ella,Non-sensible,edin_semantics,sem_emo_sem_emo,2.25445733717061,2,1,1,1,85047.374224851,103,B
53,2,25/6/95,20,f,179,Tim pulled the handle,Sensible,edin_semantics,sem_emo_sem_emo,1.25397528952453,2,1,1,1,85049.373631833,73,B
53,2,25/6/95,20,f,180,The carrots grated Tom,Non-sensible,edin_semantics,sem_emo_sem_emo,1.23080941991066,2,2,2,1,85051.3495166213,140,B
53,2,25/6/95,20,f,181,Liz scrubbed the bowl,Sensible,edin_semantics,sem_emo_sem_emo,1.0080055831495,2,2,2,1,85053.1019994233,56,B
53,2,25/6/95,20,f,182,Matt drank the juice,Sensible,edin_semantics,sem_emo_sem_emo,4.7596342980687,1,2,2,1,85058.6062058744,60,B
53,2,25/6/95,20,f,183,Leo stored the wine,Sensible,edin_semantics,sem_emo_sem_emo,11.0043576722965,1,2,2,1,85070.3556908724,52,B
53,2,25/6/95,20,f,184,The dessert served Fred,Non-sensible,edin_semantics,sem_emo_sem_emo,1.38379652779258,2,1,1,1,85072.484485795,145,B
53,2,25/6/95,20,f,185,The perfume sniffed Tim,Non-sensible,edin_semantics,sem_emo_sem_emo,10.1695665964944,1,1,1,1,85083.3989359672,93,B
53,2,25/6/95,20,f,186,Tim ate the ham,Sensible,edin_semantics,sem_emo_sem_emo,1.2899159030494,2,1,1,1,85085.4335907996,67,B
53,2,25/6/95,20,f,187,Jen fixed the laptop,Sensible,edin_semantics,sem_emo_sem_emo,8.0997242097219,1,1,1,1,85094.2780452791,37,B
53,2,25/6/95,20,f,188,The hedge jumped Sara,Non-sensible,edin_semantics,sem_emo_sem_emo,1.25455676151614,2,2,2,1,85096.2774561098,92,B
53,2,25/6/95,20,f,189,The hotline dialed Hugh,Non-sensible,edin_semantics,sem_emo_sem_emo,2.54855932536884,1,2,2,1,85099.5706700142,138,B
53,2,25/6/95,20,f,190,Ryan painted the picture,Sensible,edin_semantics,sem_emo_sem_emo,3.41869222364039,1,1,1,1,85103.734090904,35,B
53,2,25/6/95,20,f,191,Phil passed the towels,Sensible,edin_semantics,sem_emo_sem_emo,1.11337613283831,2,1,1,1,85105.5923541405,43,B
53,2,25/6/95,20,f,192,Matt pushed the trolley,Sensible,edin_semantics,sem_emo_sem_emo,1.16072328315931,2,2,2,1,85107.4976925537,26,B
53,2,25/6/95,20,f,193,Andy grated the cheese,Sensible,edin_semantics,sem_emo_sem_emo,5.92368573058047,1,1,1,1,85114.1663064405,65,B
53,2,25/6/95,20,f,194,Luke climbed the hill,Sensible,edin_semantics,sem_emo_sem_emo,2.53610658801335,1,2,2,1,85117.4476856421,68,B
53,2,25/6/95,20,f,195,Lara filed the papers,Sensible,edin_semantics,sem_emo_sem_emo,6.52396912200493,1,2,2,1,85124.7164883069,24,B
53,2,25/6/95,20,f,196,The monitor punched Erin,Non-sensible,edin_semantics,sem_emo_sem_emo,1.17215515712451,2,1,1,1,85126.6332322947,125,B
53,2,25/6/95,20,f,197,The bed sold Jay,Non-sensible,edin_semantics,sem_emo_sem_emo,1.39621494771563,2,1,1,1,85128.7739065007,113,B
53,2,25/6/95,20,f,198,The fat chewed Adam,Non-sensible,edin_semantics,sem_emo_sem_emo,1.39505905966507,2,2,2,1,85130.9143295801,106,B
53,2,25/6/95,20,f,199,Max lent the bucket,Sensible,edin_semantics,sem_emo_sem_emo,1.29041462833993,2,1,1,1,85132.9489892234,19,B
53,2,25/6/95,20,f,200,The garage tidied Erin,Non-sensible,edin_semantics,sem_emo_sem_emo,1.11354451274383,2,1,2,0,85134.807275552,77,B
53,2,25/6/95,20,f,201,The wallet carried Leo,Non-sensible,edin_semantics,sem_emo_sem_emo,9.52229911394534,1,2,2,1,85145.0748450344,150,B
53,2,25/6/95,20,f,202,John described the pen,Sensible,edin_semantics,sem_emo_sem_emo,1.86576752859401,1,2,2,1,85147.6858341814,42,B
53,2,25/6/95,20,f,203,Liz sliced the tomato,Sensible,edin_semantics,sem_emo_sem_emo,11.7332470800611,1,1,1,1,85160.1645084637,3,B
53,2,25/6/95,20,f,204,The donut iced Joe,Non-sensible,edin_semantics,sem_emo_sem_emo,3.14830293889099,1,1,1,1,85164.05748298,119,B
53,2,25/6/95,20,f,205,The gift posted Jack,Non-sensible,edin_semantics,sem_emo_sem_emo,1.38370736660727,2,1,1,1,85166.1862516032,111,B
53,2,25/6/95,20,f,206,Jon trimmed the bushes,Sensible,edin_semantics,sem_emo_sem_emo,8.04128803903586,1,2,2,1,85174.9719107016,32,B
53,2,25/6/95,20,f,207,Phil typed the letter,Sensible,edin_semantics,sem_emo_sem_emo,2.03002518642461,1,1,1,1,85177.7475821445,49,B
53,2,25/6/95,20,f,208,Mike paid the bill,Sensible,edin_semantics,sem_emo_sem_emo,1.46668499067891,1,1,1,1,85179.958659683,59,B
53,2,25/6/95,20,f,209,The hospital visited Tom,Non-sensible,edin_semantics,sem_emo_sem_emo,2.68925149193092,1,1,1,1,85183.3929945615,91,B
53,2,25/6/95,20,f,210,Jon jumped the fence,Sensible,edin_semantics,sem_emo_sem_emo,1.43064270775358,2,1,1,1,85185.5688178351,17,B
53,2,25/6/95,20,f,211,The party cancelled Phil,Non-sensible,edin_semantics,sem_emo_sem_emo,2.5718133939954,1,2,2,1,85188.8854891469,82,B
53,2,25/6/95,20,f,212,Jane punched the wall,Sensible,edin_semantics,sem_emo_sem_emo,1.19594451352896,2,2,2,1,85190.8260417345,50,B
53,2,25/6/95,20,f,213,The gum swallowed Owen,Non-sensible,edin_semantics,sem_emo_sem_emo,0.913560484797927,2,1,1,1,85192.4843838049,97,B
53,2,25/6/95,20,f,214,The rose kissed Hugh,Non-sensible,edin_semantics,sem_emo_sem_emo,1.11384118213027,2,2,2,1,85194.3426746236,98,B
53,2,25/6/95,20,f,215,The socks knitted Ryan,Non-sensible,edin_semantics,sem_emo_sem_emo,2.79562943460769,1,1,1,1,85197.8828155945,141,B
53,2,25/6/95,20,f,216,The debt paid Zoe,Non-sensible,edin_semantics,sem_emo_sem_emo,1.26658518146724,1,2,2,1,85199.8940707497,134,B
53,2,25/6/95,20,f,217,Amy measured the thread,Sensible,edin_semantics,sem_emo_sem_emo,5.25360453299072,2,1,1,1,85205.8922403798,51,B
53,2,25/6/95,20,f,218,The rope pulled Andy,Non-sensible,edin_semantics,sem_emo_sem_emo,3.68928548863914,1,2,2,1,85210.3261846169,148,B
53,2,25/6/95,20,f,219,Kate lifted the box,Sensible,edin_semantics,sem_emo_sem_emo,5.72386687531252,2,1,1,1,85216.7948994676,69,B
53,2,25/6/95,20,f,220,Joe wore the jumper,Sensible,edin_semantics,sem_emo_sem_emo,9.16955344683083,1,1,1,1,85226.7095937105,25,B
53,2,25/6/95,20,f,221,The onion sliced Liam,Non-sensible,edin_semantics,sem_emo_sem_emo,4.31237265265372,1,2,2,1,85231.7669477596,78,B
53,2,25/6/95,20,f,222,The opera watched Adam,Non-sensible,edin_semantics,sem_emo_sem_emo,6.08848060054879,1,2,2,1,85238.6002500362,108,B
53,2,25/6/95,20,f,223,The church described Erin,Non-sensible,edin_semantics,sem_emo_sem_emo,1.57127393681731,1,1,1,1,85240.9172013397,117,B
53,2,25/6/95,20,f,224,The rice stored Fred,Non-sensible,edin_semantics,sem_emo_sem_emo,2.12437663349556,1,1,1,1,85243.7868913186,127,B
53,2,25/6/95,20,f,225,The kettle carried John,Non-sensible,edin_semantics,sem_emo_sem_emo,1.20713552403322,2,1,1,1,85245.7392814956,105,B
53,2,25/6/95,20,f,226,Lily dented the lorry,Sensible,edin_semantics,sem_emo_sem_emo,1.25395989479148,2,1,1,1,85247.7386827046,71,B
53,2,25/6/95,20,f,227,The sweets offered Tom,Non-sensible,edin_semantics,sem_emo_sem_emo,1.23077798898157,2,2,2,1,85249.7147111771,84,B
53,2,25/6/95,20,f,228,Dan carried the folder,Sensible,edin_semantics,sem_emo_sem_emo,1.24236509320326,2,2,2,1,85251.7022424036,30,B
53,2,25/6/95,20,f,229,Max kissed the mirror,Sensible,edin_semantics,sem_emo_sem_emo,4.53564827391529,1,1,1,1,85256.9830385295,23,B
53,2,25/6/95,20,f,230,Liz labeled the jar,Sensible,edin_semantics,sem_emo_sem_emo,7.72254581456946,1,1,1,1,85265.451150099,61,B
53,2,25/6/95,20,f,231,Tom dialed the number,Sensible,edin_semantics,sem_emo_sem_emo,1.71265084836341,1,1,1,1,85267.9092326398,63,B
53,2,25/6/95,20,f,232,The curtains measured Rob,Non-sensible,edin_semantics,sem_emo_sem_emo,4.14720061168191,1,2,2,1,85272.8019114488,126,B
53,2,25/6/95,20,f,233,Ben chewed the toffee,Sensible,edin_semantics,sem_emo_sem_emo,1.32492032423033,2,1,1,1,85274.8718888603,31,B
53,2,25/6/95,20,f,234,The carrots chopped Fred,Non-sensible,edin_semantics,sem_emo_sem_emo,3.17154097132152,1,2,2,1,85278.7883560636,102,B
53,2,25/6/95,20,f,235,The steak ate Mike,Non-sensible,edin_semantics,sem_emo_sem_emo,8.39319437232916,1,2,2,1,85287.9268336333,142,B
53,2,25/6/95,20,f,236,Mary iced the cake,Sensible,edin_semantics,sem_emo_sem_emo,4.19408335415937,1,2,2,1,85292.8665699792,44,B
53,2,25/6/95,20,f,237,The hair brushed Dan,Non-sensible,edin_semantics,sem_emo_sem_emo,3.00646803395648,2,1,1,1,85296.6183840724,147,B
53,2,25/6/95,20,f,238,The report filed Ian,Non-sensible,edin_semantics,sem_emo_sem_emo,1.63089582286193,2,1,1,1,85298.994167961,99,B
53,2,25/6/95,20,f,239,Jen weighed the flour,Sensible,edin_semantics,sem_emo_sem_emo,1.37219146304415,2,2,2,1,85301.1112295294,64,B
53,2,25/6/95,20,f,240,Ryan entered the room,Sensible,edin_semantics,sem_emo_sem_emo,4.44175033010833,1,2,2,1,85306.297888131,58,B
53,2,25/6/95,20,f,241,Lily got the kettle,Sensible,edin_semantics,sem_emo_sem_emo,4.54757406230783,1,1,1,1,85311.5904740584,13,B
53,2,25/6/95,20,f,242,The dress wore Kate,Non-sensible,edin_semantics,sem_emo_sem_emo,3.24182339094114,1,2,2,1,85315.5775225958,100,B
53,2,25/6/95,20,f,243,The lemon squeezed Jay,Non-sensible,edin_semantics,sem_emo_sem_emo,1.53646130838024,1,2,2,1,85317.8592222002,76,B
53,2,25/6/95,20,f,244,The box labeled Ian,Non-sensible,edin_semantics,sem_emo_sem_emo,5.45337592116266,1,2,2,1,85324.0573659159,136,B
53,2,25/6/95,20,f,245,The bowl dented Ian,Non-sensible,edin_semantics,sem_emo_sem_emo,1.36036798550049,2,2,2,1,85326.1626120248,146,B
53,2,25/6/95,20,f,246,Erin crushed the garlic,Sensible,edin_semantics,sem_emo_sem_emo,1.19575464513036,2,2,2,1,85328.1032441518,6,B
53,2,25/6/95,20,f,247,The portrait painted Jay,Non-sensible,edin_semantics,sem_emo_sem_emo,1.34900442566141,2,2,2,1,85330.1967530579,110,B
53,2,25/6/95,20,f,248,The radio fixed Luke,Non-sensible,edin_semantics,sem_emo_sem_emo,1.34884534674347,2,2,2,1,85332.2902629261,112,B
53,2,25/6/95,20,f,249,The ribbon cut Lucy,Non-sensible,edin_semantics,sem_emo_sem_emo,3.65350106752885,1,1,1,1,85336.6889442387,95,B
53,2,25/6/95,20,f,250,Dan whisked the eggs,Sensible,edin_semantics,sem_emo_sem_emo,2.07800191729621,1,2,2,1,85339.5116619932,62,B
53,2,25/6/95,20,f,251,Will mashed the potatoes,Sensible,edin_semantics,sem_emo_sem_emo,3.3601393095305,2,2,2,1,85343.6163173291,28,B
53,2,25/6/95,20,f,252,The desk wiped Lucy,Non-sensible,edin_semantics,sem_emo_sem_emo,2.66604553184879,1,1,1,1,85347.0270924893,115,B
53,2,25/6/95,20,f,253,The ticket took Tim,Non-sensible,edin_semantics,sem_emo_sem_emo,1.87820422976802,2,2,2,1,85349.6498255744,128,B
53,2,25/6/95,20,f,254,Kate served the dish,Sensible,edin_semantics,sem_emo_sem_emo,2.67782699460804,1,2,2,1,85353.0723369754,70,B
53,2,25/6/95,20,f,255,Josh squeezed the ball,Sensible,edin_semantics,sem_emo_sem_emo,1.63080634096696,1,1,1,1,85355.4481006585,1,B
53,2,25/6/95,20,f,256,Eve taught the lesson,Sensible,edin_semantics,sem_emo_sem_emo,2.59544014350104,1,1,1,1,85358.7883159731,15,B
53,2,25/6/95,20,f,257,The shed built Rose,Non-sensible,edin_semantics,sem_emo_sem_emo,3.86509849903814,2,1,1,1,85363.3987194787,121,B
53,2,25/6/95,20,f,258,Will licked the spoon,Sensible,edin_semantics,sem_emo_sem_emo,1.34881102929648,2,1,1,1,85365.4922081792,21,B
53,2,25/6/95,20,f,259,Ian cancelled the plans,Sensible,edin_semantics,sem_emo_sem_emo,2.48918343437254,1,1,1,1,85368.7265003372,7,B
53,2,25/6/95,20,f,260,The rope pulled Emma,Non-sensible,edin_semantics,sem_emo_sem_emo,1.36029838846298,2,2,2,1,85370.8317984034,120,B
53,2,25/6/95,20,f,261,Carl brushed the teeth,Sensible,edin_semantics,sem_emo_sem_emo,3.95991884409159,2,2,2,1,85375.5363041538,72,B
53,2,25/6/95,20,f,262,Jeff watered the garden,Sensible,edin_semantics,sem_emo_sem_emo,1.50277089202427,2,2,2,1,85377.7827209489,54,B
53,2,25/6/95,20,f,263,Rob stroked the fur,Sensible,edin_semantics,sem_emo_sem_emo,4.93674591855961,1,1,1,1,85383.4633751226,41,B
53,2,25/6/95,20,f,264,Leah sucked the lolly,Sensible,edin_semantics,sem_emo_sem_emo,2.95970909082098,1,2,2,1,85387.168181391,12,B
53,2,25/6/95,20,f,265,The pot scrubbed Josh,Non-sensible,edin_semantics,sem_emo_sem_emo,2.32475258574414,1,1,1,1,85390.2379112038,131,B
53,2,25/6/95,20,f,266,The pan washed Beth,Non-sensible,edin_semantics,sem_emo_sem_emo,1.88960563499131,1,2,2,1,85392.8723734737,132,B
53,2,25/6/95,20,f,267,The house dusted Alex,Non-sensible,edin_semantics,sem_emo_sem_emo,5.90042877546512,1,2,2,1,85399.5175828726,122,B
53,2,25/6/95,20,f,268,Sean read the book,Sensible,edin_semantics,sem_emo_sem_emo,1.41914123675087,2,2,2,1,85401.6816003084,4,B
53,2,25/6/95,20,f,269,Kate built the house,Sensible,edin_semantics,sem_emo_sem_emo,1.30158222600585,2,2,2,1,85403.7280330756,46,B
53,2,25/6/95,20,f,270,Beth took the photo,Sensible,edin_semantics,sem_emo_sem_emo,4.30056232477364,1,1,1,1,85408.7735575534,53,B
53,2,25/6/95,20,f,271,The report wrote Alex,Non-sensible,edin_semantics,sem_emo_sem_emo,5.70020901560201,1,1,1,1,85415.218722949,149,B
53,2,25/6/95,20,f,272,Jon cut the paper,Sensible,edin_semantics,sem_emo_sem_emo,1.66593841015128,2,2,2,1,85417.6297883641,20,B
53,2,25/6/95,20,f,273,Matt kicked the bike,Sensible,edin_semantics,sem_emo_sem_emo,3.32552777482488,2,1,1,1,85421.6991644187,39,B
53,2,25/6/95,20,f,274,The internet searched Max,Non-sensible,edin_semantics,sem_emo_sem_emo,2.21931564627448,1,1,1,1,85424.6630204663,85,B
53,2,25/6/95,20,f,275,Joe solved the puzzle,Sensible,edin_semantics,sem_emo_sem_emo,5.93569683146779,1,2,2,1,85431.3434113258,34,B
53,2,25/6/95,20,f,276,Josh ironed the shirt,Sensible,edin_semantics,sem_emo_sem_emo,3.25428735364403,1,1,1,1,85435.3422195167,55,B
53,2,25/6/95,20,f,277,The hair trimmed Bill,Non-sensible,edin_semantics,sem_emo_sem_emo,4.31258304738731,2,1,1,1,85440.399571,107,B
53,2,25/6/95,20,f,278,The door kicked Max,Non-sensible,edin_semantics,sem_emo_sem_emo,4.312452512866,1,2,2,1,85445.4568836758,114,B
53,2,25/6/95,20,f,279,Phil chopped the herbs,Sensible,edin_semantics,sem_emo_sem_emo,1.3481455277215,2,1,1,1,85447.5503659617,27,B
53,2,25/6/95,20,f,280,The stairs climbed Ben,Non-sensible,edin_semantics,sem_emo_sem_emo,4.21822454439825,1,1,1,1,85452.5137123795,143,B
53,2,25/6/95,20,f,281,The problem solved Phil,Non-sensible,edin_semantics,sem_emo_sem_emo,1.24256041391345,1,1,1,1,85454.5012583593,109,B
53,2,25/6/95,20,f,282,The sugar weighed Liz,Non-sensible,edin_semantics,sem_emo_sem_emo,1.27800166071393,1,1,1,1,85456.5242571319,139,B
53,2,25/6/95,20,f,283,The bath cleaned Jack,Non-sensible,edin_semantics,sem_emo_sem_emo,1.81935881568643,1,2,2,1,85459.0881553868,80,B
53,2,25/6/95,20,f,284,Hugh pulled the lever,Sensible,edin_semantics,sem_emo_sem_emo,3.15982878489012,1,1,1,1,85462.9928825007,45,B
53,2,25/6/95,20,f,285,The rules taught Josh,Non-sensible,edin_semantics,sem_emo_sem_emo,2.58366926464078,1,2,2,1,85466.3212971091,90,B
53,2,25/6/95,20,f,286,The crate lifted Amy,Non-sensible,edin_semantics,sem_emo_sem_emo,2.50155342502694,2,2,1,0,85469.5674047266,144,B
53,2,25/6/95,20,f,287,The car lent Fred,Non-sensible,edin_semantics,sem_emo_sem_emo,3.80642659644946,1,2,2,1,85474.1189936077,94,B
53,2,25/6/95,20,f,288,Ryan carried the gun,Sensible,edin_semantics,sem_emo_sem_emo,2.32483918113576,2,1,1,1,85477.1886862165,75,B
53,2,25/6/95,20,f,289,The trousers ironed Eve,Non-sensible,edin_semantics,sem_emo_sem_emo,1.95975784079928,1,2,2,1,85479.893793003,130,B
53,2,25/6/95,20,f,290,The blanket stroked Ryan,Non-sensible,edin_semantics,sem_emo_sem_emo,1.30156458620331,2,2,2,1,85481.9402299396,116,B
53,2,25/6/95,20,f,291,Beth wiped the table,Sensible,edin_semantics,sem_emo_sem_emo,2.48933353304164,1,2,2,1,85485.1745823938,40,B
53,2,25/6/95,20,f,292,Bill counted the sheets,Sensible,edin_semantics,sem_emo_sem_emo,3.5359426982177,1,2,2,1,85489.4556604357,48,B
53,2,25/6/95,20,f,293,The shoes counted Lucy,Non-sensible,edin_semantics,sem_emo_sem_emo,1.50120447768131,2,1,1,1,85491.7020570253,123,B
53,2,25/6/95,20,f,294,The poster read Luke,Non-sensible,edin_semantics,sem_emo_sem_emo,1.5722059597465,2,1,1,1,85494.0190663799,79,B
53,2,25/6/95,20,f,295,Tim cleaned the floor,Sensible,edin_semantics,sem_emo_sem_emo,1.7954507915274,2,1,1,1,85496.5594850974,5,B
53,2,25/6/95,20,f,296,The radio got Ben,Non-sensible,edin_semantics,sem_emo_sem_emo,2.4069274385256,1,2,2,1,85499.7114782827,88,B
53,2,25/6/95,20,f,297,The message typed Eve,Non-sensible,edin_semantics,sem_emo_sem_emo,4.54721870049252,1,2,2,1,85505.0040135358,124,B
53,2,25/6/95,20,f,298,Erin posted the card,Sensible,edin_semantics,sem_emo_sem_emo,3.06574129339424,1,2,2,1,85508.8146740052,36,B
53,2,25/6/95,20,f,299,The trophy polished Anna,Non-sensible,edin_semantics,sem_emo_sem_emo,1.64271801750874,1,2,2,1,85511.202220434,104,B
53,2,25/6/95,20,f,300,The office entered Joe,Non-sensible,edin_semantics,sem_emo_sem_emo,1.17200024759222,2,1,1,1,85513.1192768066,133,B
