subject_column,AssignedList_column,subject_dob_column,subject_age_column,subject_gender_column,trialnum_column,Stim_column,Type_column,Experiment_column,OrderGroup_column,ReactionTime_column,StimSide_column,StimPosition_column,Response_column,Valid_column,TrialEndSecs_column,PairID_column,List_column
55,3,17/11/92,23,f,1,The plants watered Luke,Non-sensible,edin_semantics,emo_sem_emo_sem,1.69583398012037,2,1,1,1,80467.2945425063,129,B
55,3,17/11/92,23,f,2,Jon jumped the fence,Sensible,edin_semantics,emo_sem_emo_sem,0.664665803706157,2,1,1,1,80468.705890786,17,B
55,3,17/11/92,23,f,3,The hair trimmed Bill,Non-sensible,edin_semantics,emo_sem_emo_sem,0.736190774303395,1,1,1,1,80470.1878156683,107,B
55,3,17/11/92,23,f,4,Eve taught the lesson,Sensible,edin_semantics,emo_sem_emo_sem,0.583537204118329,1,1,1,1,80471.5167932013,15,B
55,3,17/11/92,23,f,5,The internet searched Max,Non-sensible,edin_semantics,emo_sem_emo_sem,0.668269088913803,2,1,1,1,80472.9281398774,85,B
55,3,17/11/92,23,f,6,The trophy polished Anna,Non-sensible,edin_semantics,emo_sem_emo_sem,0.597651113479515,1,2,2,1,80474.2688868591,104,B
55,3,17/11/92,23,f,7,Jeff watered the garden,Sensible,edin_semantics,emo_sem_emo_sem,0.562267718793009,1,2,2,1,80475.5743655845,54,B
55,3,17/11/92,23,f,8,Liz scrubbed the bowl,Sensible,edin_semantics,emo_sem_emo_sem,0.468095130578149,1,2,2,1,80476.7857480529,56,B
55,3,17/11/92,23,f,9,The carrots chopped Fred,Non-sensible,edin_semantics,emo_sem_emo_sem,0.46813938987907,1,2,2,1,80477.9971430294,102,B
55,3,17/11/92,23,f,10,Luke swallowed the pill,Sensible,edin_semantics,emo_sem_emo_sem,0.479989339277381,1,2,2,1,80479.2203218871,22,B
55,3,17/11/92,23,f,11,The plate licked Jane,Non-sensible,edin_semantics,emo_sem_emo_sem,0.550294292334002,1,2,2,1,80480.5140362952,96,B
55,3,17/11/92,23,f,12,The report filed Ian,Non-sensible,edin_semantics,emo_sem_emo_sem,0.585847989146714,2,1,1,1,80481.843044938,99,B
55,3,17/11/92,23,f,13,Jon polished the coins,Sensible,edin_semantics,emo_sem_emo_sem,0.515513529884629,2,1,1,1,80483.1014792231,29,B
55,3,17/11/92,23,f,14,The salt passed Leo,Non-sensible,edin_semantics,emo_sem_emo_sem,0.550852985965321,1,2,2,1,80484.3951670115,118,B
55,3,17/11/92,23,f,15,Kate built the house,Sensible,edin_semantics,emo_sem_emo_sem,1.06773438512755,1,2,2,1,80486.2063891843,46,B
55,3,17/11/92,23,f,16,Phil chopped the herbs,Sensible,edin_semantics,emo_sem_emo_sem,0.714879595427192,2,1,1,1,80487.6647511151,27,B
55,3,17/11/92,23,f,17,The invite mailed Ian,Non-sensible,edin_semantics,emo_sem_emo_sem,0.762230322885443,1,1,1,1,80489.1701853888,89,B
55,3,17/11/92,23,f,18,Matt kicked the bike,Sensible,edin_semantics,emo_sem_emo_sem,0.538865447844728,1,1,1,1,80490.452139649,39,B
55,3,17/11/92,23,f,19,The dress wore Kate,Non-sensible,edin_semantics,emo_sem_emo_sem,0.562275095348014,2,2,2,1,80491.7576469185,100,B
55,3,17/11/92,23,f,20,Kate lifted the box,Sensible,edin_semantics,emo_sem_emo_sem,1.303032917378,1,1,1,1,80493.8040730112,69,B
55,3,17/11/92,23,f,21,The hedge jumped Sara,Non-sensible,edin_semantics,emo_sem_emo_sem,0.715290116568212,1,2,2,1,80495.2624557888,92,B
55,3,17/11/92,23,f,22,Tom dialed the number,Sensible,edin_semantics,emo_sem_emo_sem,0.621283981847228,1,1,1,1,80496.6267365365,63,B
55,3,17/11/92,23,f,23,The shed built Rose,Non-sensible,edin_semantics,emo_sem_emo_sem,0.538906179237529,1,1,1,1,80497.9087036255,121,B
55,3,17/11/92,23,f,24,Lily dented the lorry,Sensible,edin_semantics,emo_sem_emo_sem,0.727011778115411,2,1,1,1,80499.3788183277,71,B
55,3,17/11/92,23,f,25,Lara filed the papers,Sensible,edin_semantics,emo_sem_emo_sem,0.632894674374256,2,2,2,1,80500.7548903331,24,B
55,3,17/11/92,23,f,26,The car lent Fred,Non-sensible,edin_semantics,emo_sem_emo_sem,0.809040637745056,1,2,2,1,80502.30733473,94,B
55,3,17/11/92,23,f,27,Ewan wrote the story,Sensible,edin_semantics,emo_sem_emo_sem,0.691733258761815,2,2,2,1,80503.7421968911,74,B
55,3,17/11/92,23,f,28,The socks knitted Ryan,Non-sensible,edin_semantics,emo_sem_emo_sem,0.620639335364103,1,1,1,1,80505.1064725073,141,B
55,3,17/11/92,23,f,29,Will licked the spoon,Sensible,edin_semantics,emo_sem_emo_sem,0.515289026137907,1,1,1,1,80506.3649327708,21,B
55,3,17/11/92,23,f,30,Josh squeezed the ball,Sensible,edin_semantics,emo_sem_emo_sem,0.573836397059495,2,1,1,1,80507.682181907,1,B
55,3,17/11/92,23,f,31,The fat chewed Adam,Non-sensible,edin_semantics,emo_sem_emo_sem,0.597475038390257,2,2,2,1,80509.0229077213,106,B
55,3,17/11/92,23,f,32,The nuts mixed Liam,Non-sensible,edin_semantics,emo_sem_emo_sem,0.950338166789152,1,1,1,1,80510.7165502241,83,B
55,3,17/11/92,23,f,33,Hugh pulled the lever,Sensible,edin_semantics,emo_sem_emo_sem,0.480108967705746,1,1,1,1,80511.9396405631,45,B
55,3,17/11/92,23,f,34,Luke climbed the hill,Sensible,edin_semantics,emo_sem_emo_sem,0.7269431441091,1,2,2,1,80513.4097995246,68,B
55,3,17/11/92,23,f,35,The lemon squeezed Jay,Non-sensible,edin_semantics,emo_sem_emo_sem,0.726484194296063,1,2,2,1,80514.879940205,76,B
55,3,17/11/92,23,f,36,John described the pen,Sensible,edin_semantics,emo_sem_emo_sem,0.585894172778353,1,2,2,1,80516.2089424334,42,B
55,3,17/11/92,23,f,37,The ribbon cut Lucy,Non-sensible,edin_semantics,emo_sem_emo_sem,1.11486958898604,2,1,1,1,80518.0671978212,95,B
55,3,17/11/92,23,f,38,The bath cleaned Jack,Non-sensible,edin_semantics,emo_sem_emo_sem,0.644258733518654,1,2,2,1,80519.4550020718,80,B
55,3,17/11/92,23,f,39,The hair brushed Dan,Non-sensible,edin_semantics,emo_sem_emo_sem,0.644197155357688,2,1,1,1,80520.8428553927,147,B
55,3,17/11/92,23,f,40,The church described Erin,Non-sensible,edin_semantics,emo_sem_emo_sem,0.621375707676634,1,1,1,1,80522.2071040684,117,B
55,3,17/11/92,23,f,41,Carl sold the sofa,Sensible,edin_semantics,emo_sem_emo_sem,0.573594895176939,2,2,2,1,80523.5243317165,38,B
55,3,17/11/92,23,f,42,Joe solved the puzzle,Sensible,edin_semantics,emo_sem_emo_sem,0.644328650392708,1,2,2,1,80524.912151041,34,B
55,3,17/11/92,23,f,43,Max kissed the mirror,Sensible,edin_semantics,emo_sem_emo_sem,0.53882567861001,2,1,1,1,80526.194110112,23,B
55,3,17/11/92,23,f,44,The wallet carried Leo,Non-sensible,edin_semantics,emo_sem_emo_sem,0.738434528931975,2,2,2,1,80527.6760343529,150,B
55,3,17/11/92,23,f,45,Mary visited the museum,Sensible,edin_semantics,emo_sem_emo_sem,0.585663896068581,1,2,2,1,80529.0050445993,16,B
55,3,17/11/92,23,f,46,The beer drank Jack,Non-sensible,edin_semantics,emo_sem_emo_sem,0.75013021218183,2,1,1,1,80530.4986988404,135,B
55,3,17/11/92,23,f,47,The box labeled Ian,Non-sensible,edin_semantics,emo_sem_emo_sem,0.608868603725568,1,2,2,1,80531.8512123844,136,B
55,3,17/11/92,23,f,48,Phil passed the towels,Sensible,edin_semantics,emo_sem_emo_sem,0.609407733456464,1,1,1,1,80533.2037233626,43,B
55,3,17/11/92,23,f,49,The opera watched Adam,Non-sensible,edin_semantics,emo_sem_emo_sem,0.420955115929246,2,2,2,1,80534.3680969908,108,B
55,3,17/11/92,23,f,50,Dan whisked the eggs,Sensible,edin_semantics,emo_sem_emo_sem,0.574265199233196,1,2,2,1,80535.6853567108,62,B
55,3,17/11/92,23,f,51,The trousers ironed Eve,Non-sensible,edin_semantics,emo_sem_emo_sem,0.550566583318869,2,2,2,1,80536.9790566866,130,B
55,3,17/11/92,23,f,52,The turnip mashed Ella,Non-sensible,edin_semantics,emo_sem_emo_sem,0.515000057726866,2,1,1,1,80538.2375153464,103,B
55,3,17/11/92,23,f,53,Joe wore the jumper,Sensible,edin_semantics,emo_sem_emo_sem,0.503610661748098,2,1,1,1,80539.4841391307,25,B
55,3,17/11/92,23,f,54,Matt pushed the trolley,Sensible,edin_semantics,emo_sem_emo_sem,0.503291224973509,2,2,2,1,80540.7308228896,26,B
55,3,17/11/92,23,f,55,Leah sucked the lolly,Sensible,edin_semantics,emo_sem_emo_sem,0.444851615844527,1,2,1,0,80541.9187132856,12,B
55,3,17/11/92,23,f,56,The onion sliced Liam,Non-sensible,edin_semantics,emo_sem_emo_sem,0.692014529879089,1,2,2,1,80543.3536001421,78,B
55,3,17/11/92,23,f,57,Jen searched the room,Sensible,edin_semantics,emo_sem_emo_sem,0.656304642616306,2,2,2,1,80544.7531369588,10,B
55,3,17/11/92,23,f,58,Dan carried the folder,Sensible,edin_semantics,emo_sem_emo_sem,0.468105393607402,2,2,2,1,80545.9645511785,30,B
55,3,17/11/92,23,f,59,The poster read Luke,Non-sensible,edin_semantics,emo_sem_emo_sem,0.668156837040442,1,1,1,1,80547.3758635376,79,B
55,3,17/11/92,23,f,60,Phil sniffed the milk,Sensible,edin_semantics,emo_sem_emo_sem,0.621198349705082,1,2,2,1,80548.7401333809,18,B
55,3,17/11/92,23,f,61,The debt paid Zoe,Non-sensible,edin_semantics,emo_sem_emo_sem,0.609833007692941,1,2,2,1,80550.0926844491,134,B
55,3,17/11/92,23,f,62,Ella watched the movie,Sensible,edin_semantics,emo_sem_emo_sem,0.633140024918248,1,1,2,0,80551.4687391356,33,B
55,3,17/11/92,23,f,63,The portrait painted Jay,Non-sensible,edin_semantics,emo_sem_emo_sem,0.891853336186614,2,2,2,1,80553.103540809,110,B
55,3,17/11/92,23,f,64,The radio got Ben,Non-sensible,edin_semantics,emo_sem_emo_sem,0.538828565084259,2,2,2,1,80554.3854697324,88,B
55,3,17/11/92,23,f,65,Ian cancelled the plans,Sensible,edin_semantics,emo_sem_emo_sem,0.609529927634867,1,1,1,1,80555.7379970673,7,B
55,3,17/11/92,23,f,66,The hotline dialed Hugh,Non-sensible,edin_semantics,emo_sem_emo_sem,0.574267764983233,1,2,2,1,80557.0552279226,138,B
55,3,17/11/92,23,f,67,Jen weighed the flour,Sensible,edin_semantics,emo_sem_emo_sem,0.597786777885631,2,2,2,1,80558.3960053727,64,B
55,3,17/11/92,23,f,68,The gum swallowed Owen,Non-sensible,edin_semantics,emo_sem_emo_sem,0.609617484093178,1,1,1,1,80559.7485160302,97,B
55,3,17/11/92,23,f,69,The gift posted Jack,Non-sensible,edin_semantics,emo_sem_emo_sem,0.90350251509517,2,1,1,1,80561.3950916424,111,B
55,3,17/11/92,23,f,70,The house dusted Alex,Non-sensible,edin_semantics,emo_sem_emo_sem,0.633144514999003,2,2,2,1,80562.7711165021,122,B
55,3,17/11/92,23,f,71,The rope pulled Andy,Non-sensible,edin_semantics,emo_sem_emo_sem,0.527316654202878,1,2,2,1,80564.0413526287,148,B
55,3,17/11/92,23,f,72,The party cancelled Phil,Non-sensible,edin_semantics,emo_sem_emo_sem,0.538582252411288,1,2,2,1,80565.3232760999,82,B
55,3,17/11/92,23,f,73,The hospital visited Tom,Non-sensible,edin_semantics,emo_sem_emo_sem,0.550689739655354,2,1,1,1,80566.6170498411,91,B
55,3,17/11/92,23,f,74,The rose kissed Hugh,Non-sensible,edin_semantics,emo_sem_emo_sem,0.621333693401539,2,2,2,1,80567.9813158357,98,B
55,3,17/11/92,23,f,75,Rob stroked the fur,Sensible,edin_semantics,emo_sem_emo_sem,0.57399932264525,2,1,1,1,80569.2985155812,41,B
55,3,17/11/92,23,f,76,Amy hugged the tree,Sensible,edin_semantics,emo_sem_emo_sem,0.503389044475625,2,1,1,1,80570.545221149,11,B
55,3,17/11/92,23,f,77,Jen fixed the laptop,Sensible,edin_semantics,emo_sem_emo_sem,0.644780223665293,1,1,1,1,80571.9330122502,37,B
55,3,17/11/92,23,f,78,The door kicked Max,Non-sensible,edin_semantics,emo_sem_emo_sem,0.585746321026818,1,2,2,1,80573.2620061399,114,B
55,3,17/11/92,23,f,79,The ice crushed Josh,Non-sensible,edin_semantics,emo_sem_emo_sem,0.491660327097634,1,1,1,1,80574.4969275058,81,B
55,3,17/11/92,23,f,80,Beth wiped the table,Sensible,edin_semantics,emo_sem_emo_sem,0.550776013245923,2,2,2,1,80575.7906736652,40,B
55,3,17/11/92,23,f,81,Will mashed the potatoes,Sensible,edin_semantics,emo_sem_emo_sem,0.515356056537712,2,2,2,1,80577.0491134026,28,B
55,3,17/11/92,23,f,82,Liz sliced the tomato,Sensible,edin_semantics,emo_sem_emo_sem,0.515216222775052,2,1,1,1,80578.3075338969,3,B
55,3,17/11/92,23,f,83,Leo stored the wine,Sensible,edin_semantics,emo_sem_emo_sem,0.679923078598222,1,2,2,1,80579.7306541911,52,B
55,3,17/11/92,23,f,84,The monitor punched Erin,Non-sensible,edin_semantics,emo_sem_emo_sem,0.585652029447374,1,1,1,1,80581.0596391006,125,B
55,3,17/11/92,23,f,85,The bed sold Jay,Non-sensible,edin_semantics,emo_sem_emo_sem,0.72682800576149,2,1,1,1,80582.5297605379,113,B
55,3,17/11/92,23,f,86,The bowl dented Ian,Non-sensible,edin_semantics,emo_sem_emo_sem,0.515515454200795,2,2,2,1,80583.7881791078,146,B
55,3,17/11/92,23,f,87,Liz labeled the jar,Sensible,edin_semantics,emo_sem_emo_sem,0.726998949321569,2,1,1,1,80585.2583284477,61,B
55,3,17/11/92,23,f,88,The report wrote Alex,Non-sensible,edin_semantics,emo_sem_emo_sem,0.49167700453836,2,1,1,1,80586.4932244768,149,B
55,3,17/11/92,23,f,89,Sam tidied the room,Sensible,edin_semantics,emo_sem_emo_sem,0.644797863234999,1,2,2,1,80587.881126547,2,B
55,3,17/11/92,23,f,90,Mike paid the bill,Sensible,edin_semantics,emo_sem_emo_sem,0.527186762745259,1,1,1,1,80589.1512831351,59,B
55,3,17/11/92,23,f,91,Max lent the bucket,Sensible,edin_semantics,emo_sem_emo_sem,0.679846426603035,2,1,1,1,80590.5743479449,19,B
55,3,17/11/92,23,f,92,The rules taught Josh,Non-sensible,edin_semantics,emo_sem_emo_sem,0.597566443495452,1,2,2,1,80591.9151327715,90,B
55,3,17/11/92,23,f,93,The sugar weighed Liz,Non-sensible,edin_semantics,emo_sem_emo_sem,0.597877541542402,1,1,1,1,80593.2559240125,139,B
55,3,17/11/92,23,f,94,Ryan painted the picture,Sensible,edin_semantics,emo_sem_emo_sem,0.656253648194252,2,1,1,1,80594.6554871282,35,B
55,3,17/11/92,23,f,95,The curtains measured Rob,Non-sensible,edin_semantics,emo_sem_emo_sem,0.515205959745799,2,2,2,1,80595.9138822856,126,B
55,3,17/11/92,23,f,96,The rope pulled Emma,Non-sensible,edin_semantics,emo_sem_emo_sem,0.62137442479434,1,2,2,1,80597.2781832387,120,B
55,3,17/11/92,23,f,97,The problem solved Phil,Non-sensible,edin_semantics,emo_sem_emo_sem,0.456353905145079,2,1,1,1,80598.4778151808,109,B
55,3,17/11/92,23,f,98,The ticket took Tim,Non-sensible,edin_semantics,emo_sem_emo_sem,0.491730564710451,2,2,2,1,80599.7127198693,128,B
55,3,17/11/92,23,f,99,Carl brushed the teeth,Sensible,edin_semantics,emo_sem_emo_sem,0.515241559623973,1,2,2,1,80600.9711820572,72,B
55,3,17/11/92,23,f,100,The candy sucked Sam,Non-sensible,edin_semantics,emo_sem_emo_sem,0.597472472625668,1,1,1,1,80602.3119264731,87,B
55,3,17/11/92,23,f,101,Beth took the photo,Sensible,edin_semantics,emo_sem_emo_sem,0.479871955889394,2,1,2,0,80603.535068448,53,B
55,3,17/11/92,23,f,102,Tom knitted the scarf,Sensible,edin_semantics,emo_sem_emo_sem,1.47837419515417,1,2,2,1,80605.7579339625,66,B
55,3,17/11/92,23,f,103,The crate lifted Amy,Non-sensible,edin_semantics,emo_sem_emo_sem,0.644640069178422,2,2,2,1,80607.1458106959,144,B
55,3,17/11/92,23,f,104,Mark washed the dishes,Sensible,edin_semantics,emo_sem_emo_sem,0.574130176246399,2,1,1,1,80608.4629668235,57,B
55,3,17/11/92,23,f,105,Bill counted the sheets,Sensible,edin_semantics,emo_sem_emo_sem,0.632359714014456,1,2,2,1,80609.8390324145,48,B
55,3,17/11/92,23,f,106,Rob mailed the parcel,Sensible,edin_semantics,emo_sem_emo_sem,0.562133978717611,2,2,2,1,80611.1445143471,14,B
55,3,17/11/92,23,f,107,The shoes counted Lucy,Non-sensible,edin_semantics,emo_sem_emo_sem,0.66779282024072,1,1,1,1,80612.5558594196,123,B
55,3,17/11/92,23,f,108,The office entered Joe,Non-sensible,edin_semantics,emo_sem_emo_sem,0.85595743151498,2,1,1,1,80614.155364934,133,B
55,3,17/11/92,23,f,109,Jane punched the wall,Sensible,edin_semantics,emo_sem_emo_sem,1.16170652357687,1,2,2,1,80616.0606737422,50,B
55,3,17/11/92,23,f,110,The pot scrubbed Josh,Non-sensible,edin_semantics,emo_sem_emo_sem,0.797438925350434,2,1,1,1,80617.6013448416,131,B
55,3,17/11/92,23,f,111,The garage tidied Erin,Non-sensible,edin_semantics,emo_sem_emo_sem,0.609233582683373,1,1,1,1,80618.9538763459,77,B
55,3,17/11/92,23,f,112,Tim pulled the handle,Sensible,edin_semantics,emo_sem_emo_sem,1.87911595554033,2,1,1,1,80621.5765929824,73,B
55,3,17/11/92,23,f,113,Josh ironed the shirt,Sensible,edin_semantics,emo_sem_emo_sem,0.52672396429989,2,1,1,1,80622.8467832461,55,B
55,3,17/11/92,23,f,114,Jake dusted the shelf,Sensible,edin_semantics,emo_sem_emo_sem,0.66766260805889,1,1,1,1,80624.2581148484,47,B
55,3,17/11/92,23,f,115,The blanket stroked Ryan,Non-sensible,edin_semantics,emo_sem_emo_sem,0.503535934069077,2,2,2,1,80625.5047941172,116,B
55,3,17/11/92,23,f,116,The steak ate Mike,Non-sensible,edin_semantics,emo_sem_emo_sem,0.679537573581911,1,2,2,1,80626.9278877917,142,B
55,3,17/11/92,23,f,117,The radio fixed Luke,Non-sensible,edin_semantics,emo_sem_emo_sem,0.597273305742419,1,2,2,1,80628.2686703733,112,B
55,3,17/11/92,23,f,118,The pillow hugged Kate,Non-sensible,edin_semantics,emo_sem_emo_sem,0.550382810964948,1,2,2,1,80629.5623992139,86,B
55,3,17/11/92,23,f,119,The button pushed Ian,Non-sensible,edin_semantics,emo_sem_emo_sem,0.573829982662573,1,1,1,1,80630.8796300691,101,B
55,3,17/11/92,23,f,120,The stairs climbed Ben,Non-sensible,edin_semantics,emo_sem_emo_sem,0.550115010060836,2,1,1,1,80632.1733537781,143,B
55,3,17/11/92,23,f,121,The desk wiped Lucy,Non-sensible,edin_semantics,emo_sem_emo_sem,0.620590585967875,1,1,1,1,80633.5376422231,115,B
55,3,17/11/92,23,f,122,Phil typed the letter,Sensible,edin_semantics,emo_sem_emo_sem,0.526728454366094,2,1,1,1,80634.8078777083,49,B
55,3,17/11/92,23,f,123,The donut iced Joe,Non-sensible,edin_semantics,emo_sem_emo_sem,0.632572671864182,1,1,1,1,80636.1839035301,119,B
55,3,17/11/92,23,f,124,Erin crushed the garlic,Sensible,edin_semantics,emo_sem_emo_sem,0.585179288696963,1,2,2,1,80637.512957715,6,B
55,3,17/11/92,23,f,125,Tim ate the ham,Sensible,edin_semantics,emo_sem_emo_sem,0.550102502005757,1,1,1,1,80638.806676934,67,B
55,3,17/11/92,23,f,126,Ryan entered the room,Sensible,edin_semantics,emo_sem_emo_sem,0.585664537517005,2,2,2,1,80640.1356195085,58,B
55,3,17/11/92,23,f,127,Tim cleaned the floor,Sensible,edin_semantics,emo_sem_emo_sem,0.538271475059446,2,1,1,1,80641.417579221,5,B
55,3,17/11/92,23,f,128,The pan washed Beth,Non-sensible,edin_semantics,emo_sem_emo_sem,0.609433711739257,1,2,2,1,80642.7700908406,132,B
55,3,17/11/92,23,f,129,Jon trimmed the bushes,Sensible,edin_semantics,emo_sem_emo_sem,0.632446308314684,1,2,2,1,80644.146132057,32,B
55,3,17/11/92,23,f,130,The carrots grated Tom,Non-sensible,edin_semantics,emo_sem_emo_sem,0.561994144954951,1,2,2,1,80645.4516159139,140,B
55,3,17/11/92,23,f,131,Matt drank the juice,Sensible,edin_semantics,emo_sem_emo_sem,0.644477143592667,2,2,2,1,80646.8394352384,60,B
55,3,17/11/92,23,f,132,The dessert served Fred,Non-sensible,edin_semantics,emo_sem_emo_sem,0.56193545323913,2,1,1,1,80648.1449601474,145,B
55,3,17/11/92,23,f,133,The kettle carried John,Non-sensible,edin_semantics,emo_sem_emo_sem,0.50308628512721,2,1,1,1,80649.3915765551,105,B
55,3,17/11/92,23,f,134,The cream whisked Tom,Non-sensible,edin_semantics,emo_sem_emo_sem,0.50306415547675,2,1,1,1,80650.6382712185,137,B
55,3,17/11/92,23,f,135,Andy grated the cheese,Sensible,edin_semantics,emo_sem_emo_sem,0.421031447200221,2,1,1,1,80651.8025967387,65,B
55,3,17/11/92,23,f,136,Jack mixed the fruits,Sensible,edin_semantics,emo_sem_emo_sem,0.550458500802051,2,2,2,1,80653.0963685556,8,B
55,3,17/11/92,23,f,137,Matt offered the money,Sensible,edin_semantics,emo_sem_emo_sem,0.785528680673451,1,1,1,1,80654.6252657162,9,B
55,3,17/11/92,23,f,138,Ben chewed the toffee,Sensible,edin_semantics,emo_sem_emo_sem,0.479708709579427,1,1,1,1,80655.8484176334,31,B
55,3,17/11/92,23,f,139,Erin posted the card,Sensible,edin_semantics,emo_sem_emo_sem,0.526900039374596,1,2,2,1,80657.1186111043,36,B
55,3,17/11/92,23,f,140,Sean read the book,Sensible,edin_semantics,emo_sem_emo_sem,0.55016600448289,1,2,2,1,80658.4123393034,4,B
55,3,17/11/92,23,f,141,The sweets offered Tom,Non-sensible,edin_semantics,emo_sem_emo_sem,0.514664264264866,1,2,2,1,80659.6707735886,84,B
55,3,17/11/92,23,f,142,Mary iced the cake,Sensible,edin_semantics,emo_sem_emo_sem,0.44435161392903,1,2,2,1,80660.8586408928,44,B
55,3,17/11/92,23,f,143,The rice stored Fred,Non-sensible,edin_semantics,emo_sem_emo_sem,0.538781419294537,1,1,1,1,80662.1406275457,127,B
55,3,17/11/92,23,f,144,The perfume sniffed Tim,Non-sensible,edin_semantics,emo_sem_emo_sem,0.444505880062934,1,1,1,1,80663.3285041507,93,B
55,3,17/11/92,23,f,145,Kate served the dish,Sensible,edin_semantics,emo_sem_emo_sem,0.867756065767026,2,2,2,1,80664.9397717374,70,B
55,3,17/11/92,23,f,146,Ryan carried the gun,Sensible,edin_semantics,emo_sem_emo_sem,0.550234959213412,1,1,1,1,80666.2335079545,75,B
55,3,17/11/92,23,f,147,Amy measured the thread,Sensible,edin_semantics,emo_sem_emo_sem,0.620575832872419,1,1,1,1,80667.5977251997,51,B
55,3,17/11/92,23,f,148,Jon cut the paper,Sensible,edin_semantics,emo_sem_emo_sem,0.608889450508286,2,2,2,1,80668.95027274,20,B
55,3,17/11/92,23,f,149,The message typed Eve,Non-sensible,edin_semantics,emo_sem_emo_sem,0.538179749244591,1,2,1,0,80670.2322561857,124,B
55,3,17/11/92,23,f,150,Lily got the kettle,Sensible,edin_semantics,emo_sem_emo_sem,0.667456385330297,1,1,1,1,80671.6436044654,13,B
55,3,17/11/92,23,f,24,The laptop fixed Jen,Non-sensible,edin_semantics,emo_sem_emo_sem,1.02549464590265,1,2,2,1,80676.7949498202,37,A
55,3,17/11/92,23,f,25,Sara jumped the hedge,Sensible,edin_semantics,emo_sem_emo_sem,0.571295014611678,2,1,1,1,80678.1121749025,92,A
55,3,17/11/92,23,f,26,Alex dusted the house,Sensible,edin_semantics,emo_sem_emo_sem,0.514713655094965,2,1,1,1,80679.3705976418,122,A
55,3,17/11/92,23,f,27,Luke read the poster,Sensible,edin_semantics,emo_sem_emo_sem,0.526419280635309,2,2,2,1,80680.6407715488,79,A
55,3,17/11/92,23,f,28,Eve ironed the trousers,Sensible,edin_semantics,emo_sem_emo_sem,0.785429899027804,1,1,1,1,80682.1697546623,130,A
55,3,17/11/92,23,f,29,The mirror kissed Max,Non-sensible,edin_semantics,emo_sem_emo_sem,0.667721620484372,1,2,2,1,80683.5810974898,23,A
55,3,17/11/92,23,f,30,The fur stroked Rob,Non-sensible,edin_semantics,emo_sem_emo_sem,0.608871169490158,2,2,2,1,80684.9336597832,41,A
55,3,17/11/92,23,f,31,Fred lent the car,Sensible,edin_semantics,emo_sem_emo_sem,0.573520808931789,2,1,1,1,80686.2508386819,94,A
55,3,17/11/92,23,f,32,The lesson taught Eve,Non-sensible,edin_semantics,emo_sem_emo_sem,0.538170448373421,2,2,2,1,80687.5328028844,15,A
55,3,17/11/92,23,f,33,Tom grated the carrots,Sensible,edin_semantics,emo_sem_emo_sem,0.609014210436726,1,1,1,1,80688.8853388788,140,A
55,3,17/11/92,23,f,34,The fence jumped Jon,Non-sensible,edin_semantics,emo_sem_emo_sem,0.57364236167632,2,2,2,1,80690.2025745449,17,A
55,3,17/11/92,23,f,35,The fruits mixed Jack,Non-sensible,edin_semantics,emo_sem_emo_sem,0.55011308574467,1,1,1,1,80691.4963296844,8,A
55,3,17/11/92,23,f,36,Erin punched the monitor,Sensible,edin_semantics,emo_sem_emo_sem,0.585309500864241,1,2,2,1,80692.8253197254,125,A
55,3,17/11/92,23,f,37,Jane licked the plate,Sensible,edin_semantics,emo_sem_emo_sem,0.632371901359875,2,1,1,1,80694.2013609417,96,A
55,3,17/11/92,23,f,38,Tom whisked the cream,Sensible,edin_semantics,emo_sem_emo_sem,0.526331082728575,2,2,2,1,80695.4715685243,137,A
55,3,17/11/92,23,f,39,Fred chopped the carrots,Sensible,edin_semantics,emo_sem_emo_sem,0.608983100653859,1,1,1,1,80696.8240750125,102,A
55,3,17/11/92,23,f,40,Tim took the ticket,Sensible,edin_semantics,emo_sem_emo_sem,0.667720337602077,2,1,1,1,80698.2354168778,128,A
55,3,17/11/92,23,f,41,The gun carried Ryan,Non-sensible,edin_semantics,emo_sem_emo_sem,0.561743662896333,2,2,2,1,80699.540947239,75,A
55,3,17/11/92,23,f,42,The lolly sucked Leah,Non-sensible,edin_semantics,emo_sem_emo_sem,0.51446028657665,1,1,1,1,80700.7993164182,12,A
55,3,17/11/92,23,f,43,The coins polished Jon,Non-sensible,edin_semantics,emo_sem_emo_sem,0.46785330795683,1,2,2,1,80702.0107261478,29,A
55,3,17/11/92,23,f,44,The box lifted Kate,Non-sensible,edin_semantics,emo_sem_emo_sem,0.549861962266732,1,2,2,1,80703.3044254821,69,A
55,3,17/11/92,23,f,45,Leo carried the wallet,Sensible,edin_semantics,emo_sem_emo_sem,0.726445387219428,2,1,1,1,80704.7745757841,150,A
55,3,17/11/92,23,f,46,The handle pulled Tim,Non-sensible,edin_semantics,emo_sem_emo_sem,0.585292823452619,1,2,2,1,80706.1035706359,73,A
55,3,17/11/92,23,f,47,Fred served the dessert,Sensible,edin_semantics,emo_sem_emo_sem,0.53849020585767,1,2,2,1,80707.3855332349,145,A
55,3,17/11/92,23,f,48,Dan brushed the hair,Sensible,edin_semantics,emo_sem_emo_sem,0.726395675679669,2,2,2,1,80708.8556395984,147,A
55,3,17/11/92,23,f,49,Rob measured the curtains,Sensible,edin_semantics,emo_sem_emo_sem,0.550267031183466,1,1,1,1,80710.1494120568,126,A
55,3,17/11/92,23,f,50,The letter typed Phil,Non-sensible,edin_semantics,emo_sem_emo_sem,0.561835068001528,1,2,2,1,80711.4548968758,49,A
55,3,17/11/92,23,f,51,The cake iced Mary,Non-sensible,edin_semantics,emo_sem_emo_sem,0.550126235248172,1,1,1,1,80712.7486035867,44,A
55,3,17/11/92,23,f,52,Ian dented the bowl,Sensible,edin_semantics,emo_sem_emo_sem,0.585176081498503,2,1,1,1,80714.0775936277,146,A
55,3,17/11/92,23,f,53,Joe iced the donut,Sensible,edin_semantics,emo_sem_emo_sem,0.585383907833602,1,2,2,1,80715.4066269659,119,A
55,3,17/11/92,23,f,54,The trolley pushed Matt,Non-sensible,edin_semantics,emo_sem_emo_sem,0.514428214606596,1,1,1,1,80716.6650452151,26,A
55,3,17/11/92,23,f,55,The room tidied Sam,Non-sensible,edin_semantics,emo_sem_emo_sem,0.585348628665088,2,1,1,1,80717.9940378218,2,A
55,3,17/11/92,23,f,56,Adam chewed the fat,Sensible,edin_semantics,emo_sem_emo_sem,0.644032946889638,1,1,1,1,80719.3818965949,106,A
55,3,17/11/92,23,f,57,Leo passed the salt,Sensible,edin_semantics,emo_sem_emo_sem,0.538054347867728,1,1,1,1,80720.6637742031,118,A
55,3,17/11/92,23,f,58,Sam sucked the candy,Sensible,edin_semantics,emo_sem_emo_sem,0.620848123842734,1,2,2,1,80722.0280905507,87,A
55,3,17/11/92,23,f,59,Mike ate the steak,Sensible,edin_semantics,emo_sem_emo_sem,0.585423356344108,2,1,1,1,80723.3570943827,142,A
55,3,17/11/92,23,f,60,Liam sliced the onion,Sensible,edin_semantics,emo_sem_emo_sem,0.655624075530795,1,1,1,1,80724.7567094549,78,A
55,3,17/11/92,23,f,61,The paper cut Jon,Non-sensible,edin_semantics,emo_sem_emo_sem,0.737952487310395,2,1,1,1,80726.2385631375,20,A
55,3,17/11/92,23,f,62,The pen described John,Non-sensible,edin_semantics,emo_sem_emo_sem,0.632050540283672,2,1,1,1,80727.6146736293,42,A
55,3,17/11/92,23,f,63,The lorry dented Lily,Non-sensible,edin_semantics,emo_sem_emo_sem,0.643748147849692,1,2,2,1,80729.0024583161,71,A
55,3,17/11/92,23,f,64,Anna polished the trophy,Sensible,edin_semantics,emo_sem_emo_sem,0.490643966550124,1,1,1,1,80730.237324839,104,A
55,3,17/11/92,23,f,65,The bucket lent Max,Non-sensible,edin_semantics,emo_sem_emo_sem,0.80878085482982,1,2,2,1,80731.7898179852,19,A
55,3,17/11/92,23,f,66,Jay sold the bed,Sensible,edin_semantics,emo_sem_emo_sem,0.526336214243202,1,2,2,1,80733.0600271714,113,A
55,3,17/11/92,23,f,67,The number dialed Tom,Non-sensible,edin_semantics,emo_sem_emo_sem,0.561947319874889,1,2,2,1,80734.3654818428,63,A
55,3,17/11/92,23,f,68,Jack cleaned the bath,Sensible,edin_semantics,emo_sem_emo_sem,0.50280918336648,1,1,1,1,80735.6121976736,80,A
55,3,17/11/92,23,f,69,The photo took Beth,Non-sensible,edin_semantics,emo_sem_emo_sem,0.538320545179886,2,2,2,1,80736.8941342943,53,A
55,3,17/11/92,23,f,70,The puzzle solved Joe,Non-sensible,edin_semantics,emo_sem_emo_sem,0.479547066890518,2,1,1,1,80738.1172701755,34,A
55,3,17/11/92,23,f,71,The dishes washed Mark,Non-sensible,edin_semantics,emo_sem_emo_sem,0.490264234496863,2,2,2,1,80739.3521899379,57,A
55,3,17/11/92,23,f,72,The parcel mailed Rob,Non-sensible,edin_semantics,emo_sem_emo_sem,0.455822472693399,2,1,2,0,80740.5518613285,14,A
55,3,17/11/92,23,f,73,The wall punched Jane,Non-sensible,edin_semantics,emo_sem_emo_sem,0.632248424299178,1,1,1,1,80741.9278675864,50,A
55,3,17/11/92,23,f,74,Eve typed the message,Sensible,edin_semantics,emo_sem_emo_sem,0.526436278771143,2,1,1,1,80743.1981078824,124,A
55,3,17/11/92,23,f,75,The floor cleaned Tim,Non-sensible,edin_semantics,emo_sem_emo_sem,0.596752777753863,2,2,2,1,80744.5388353002,5,A
55,3,17/11/92,23,f,76,Andy pulled the rope,Sensible,edin_semantics,emo_sem_emo_sem,0.514914746308932,2,1,1,1,80745.7972840178,148,A
55,3,17/11/92,23,f,77,The story wrote Ewan,Non-sensible,edin_semantics,emo_sem_emo_sem,0.503306619531941,2,1,1,1,80747.0439395533,74,A
55,3,17/11/92,23,f,78,The room entered Ryan,Non-sensible,edin_semantics,emo_sem_emo_sem,0.620709572976921,1,1,1,1,80748.4082648811,58,A
55,3,17/11/92,23,f,79,Jack posted the gift,Sensible,edin_semantics,emo_sem_emo_sem,0.573753330667387,1,2,2,1,80749.725491567,111,A
55,3,17/11/92,23,f,80,Liz weighed the sugar,Sensible,edin_semantics,emo_sem_emo_sem,0.597165864659473,2,2,2,1,80751.0662456045,139,A
55,3,17/11/92,23,f,81,The bowl scrubbed Liz,Non-sensible,edin_semantics,emo_sem_emo_sem,0.514909614779754,2,1,1,1,80752.3247251112,56,A
55,3,17/11/92,23,f,82,Emma pulled the rope,Sensible,edin_semantics,emo_sem_emo_sem,0.608708885338274,1,1,1,1,80753.6772030553,120,A
55,3,17/11/92,23,f,83,Jack drank the beer,Sensible,edin_semantics,emo_sem_emo_sem,0.526756036269944,2,2,2,1,80754.9474491242,135,A
55,3,17/11/92,23,f,84,Kate hugged the pillow,Sensible,edin_semantics,emo_sem_emo_sem,0.691111383363022,1,1,1,1,80756.3822558009,86,A
55,3,17/11/92,23,f,85,The jumper wore Joe,Non-sensible,edin_semantics,emo_sem_emo_sem,0.644238848908572,1,2,2,1,80757.7701007829,25,A
55,3,17/11/92,23,f,86,The hill climbed Luke,Non-sensible,edin_semantics,emo_sem_emo_sem,0.679146616341313,2,1,1,1,80759.1931623855,68,A
55,3,17/11/92,23,f,87,Jay squeezed the lemon,Sensible,edin_semantics,emo_sem_emo_sem,0.514442967702053,1,1,1,1,80760.4515899356,76,A
55,3,17/11/92,23,f,88,Ben climbed the stairs,Sensible,edin_semantics,emo_sem_emo_sem,0.526544040578301,1,2,2,1,80761.7218337595,143,A
55,3,17/11/92,23,f,89,Lucy counted the shoes,Sensible,edin_semantics,emo_sem_emo_sem,0.691375014910591,1,2,2,1,80763.1566436433,123,A
55,3,17/11/92,23,f,90,Ella mashed the turnip,Sensible,edin_semantics,emo_sem_emo_sem,0.538119453951367,1,2,2,1,80764.4386033558,103,A
55,3,17/11/92,23,f,91,The shelf dusted Jake,Non-sensible,edin_semantics,emo_sem_emo_sem,0.621038310608128,1,2,2,1,80765.8031127766,47,A
55,3,17/11/92,23,f,92,The ham ate Tim,Non-sensible,edin_semantics,emo_sem_emo_sem,0.585387756465934,1,2,2,1,80767.1319222524,67,A
55,3,17/11/92,23,f,93,Liam mixed the nuts,Sensible,edin_semantics,emo_sem_emo_sem,0.561710628782748,1,2,2,1,80768.4373746788,83,A
55,3,17/11/92,23,f,94,The tomato sliced Liz,Non-sensible,edin_semantics,emo_sem_emo_sem,0.726117291022092,2,2,2,1,80769.9075381304,3,A
55,3,17/11/92,23,f,95,The folder carried Dan,Non-sensible,edin_semantics,emo_sem_emo_sem,0.679273942048894,1,1,1,1,80771.3306196175,30,A
55,3,17/11/92,23,f,96,John carried the kettle,Sensible,edin_semantics,emo_sem_emo_sem,0.691229728923645,1,2,2,1,80772.7654808165,105,A
55,3,17/11/92,23,f,97,Ryan knitted the socks,Sensible,edin_semantics,emo_sem_emo_sem,0.502905078523327,1,2,2,1,80774.0121690654,141,A
55,3,17/11/92,23,f,98,The card posted Erin,Non-sensible,edin_semantics,emo_sem_emo_sem,0.63259704655502,2,1,1,1,80775.3882109232,36,A
55,3,17/11/92,23,f,99,The milk sniffed Phil,Non-sensible,edin_semantics,emo_sem_emo_sem,0.550276011330425,1,1,1,1,80776.6819067296,18,A
55,3,17/11/92,23,f,100,The bushes trimmed Jon,Non-sensible,edin_semantics,emo_sem_emo_sem,0.514735143297003,2,1,1,1,80777.9403708417,32,A
55,3,17/11/92,23,f,101,The room searched Jen,Non-sensible,edin_semantics,emo_sem_emo_sem,0.479276058787946,1,1,1,1,80779.1634759338,10,A
55,3,17/11/92,23,f,102,The toffee chewed Ben,Non-sensible,edin_semantics,emo_sem_emo_sem,0.644331216157298,1,2,2,1,80780.5513561951,31,A
55,3,17/11/92,23,f,103,Ian pushed the button,Sensible,edin_semantics,emo_sem_emo_sem,0.597044953348814,1,2,2,1,80781.8920682184,101,A
55,3,17/11/92,23,f,104,The bike kicked Matt,Non-sensible,edin_semantics,emo_sem_emo_sem,0.538259608438239,2,2,2,1,80783.1740426839,39,A
55,3,17/11/92,23,f,105,Josh crushed the ice,Sensible,edin_semantics,emo_sem_emo_sem,0.502865950737032,2,2,2,1,80784.4207190663,81,A
55,3,17/11/92,23,f,106,The sheets counted Bill,Non-sensible,edin_semantics,emo_sem_emo_sem,0.456172377831535,2,1,2,0,80785.6203340103,48,A
55,3,17/11/92,23,f,107,Alex wrote the report,Sensible,edin_semantics,emo_sem_emo_sem,0.585620919635403,1,2,2,1,80786.9493378422,149,A
55,3,17/11/92,23,f,108,The movie watched Ella,Non-sensible,edin_semantics,emo_sem_emo_sem,0.526417677028803,1,2,2,1,80788.2195435005,33,A
55,3,17/11/92,23,f,109,Ian labeled the box,Sensible,edin_semantics,emo_sem_emo_sem,0.46757011252339,1,1,1,1,80789.4309349491,136,A
55,3,17/11/92,23,f,110,The garden watered Jeff,Non-sensible,edin_semantics,emo_sem_emo_sem,0.503091737366049,1,1,1,1,80790.6776171044,54,A
55,3,17/11/92,23,f,111,Tim sniffed the perfume,Sensible,edin_semantics,emo_sem_emo_sem,0.667677361168899,2,2,2,1,80792.0889743642,93,A
55,3,17/11/92,23,f,112,Lucy cut the ribbon,Sensible,edin_semantics,emo_sem_emo_sem,0.514417310143472,2,2,2,1,80793.3473692009,95,A
55,3,17/11/92,23,f,113,Ian filed the report,Sensible,edin_semantics,emo_sem_emo_sem,0.444316014050855,2,2,2,1,80794.5352615212,99,A
55,3,17/11/92,23,f,114,The table wiped Beth,Non-sensible,edin_semantics,emo_sem_emo_sem,0.538062686580815,2,1,1,1,80795.8172180265,40,A
55,3,17/11/92,23,f,115,Bill trimmed the hair,Sensible,edin_semantics,emo_sem_emo_sem,0.56192005869525,1,2,2,1,80797.1226916204,107,A
55,3,17/11/92,23,f,116,The cheese grated Andy,Non-sensible,edin_semantics,emo_sem_emo_sem,0.444169765891274,1,2,2,1,80798.3105448129,65,A
55,3,17/11/92,23,f,117,The towels passed Phil,Non-sensible,edin_semantics,emo_sem_emo_sem,0.550047658936819,1,2,2,1,80799.6043066875,43,A
55,3,17/11/92,23,f,118,Adam watched the opera,Sensible,edin_semantics,emo_sem_emo_sem,0.538199313145014,1,1,1,1,80800.8862975098,108,A
55,3,17/11/92,23,f,119,Phil solved the problem,Sensible,edin_semantics,emo_sem_emo_sem,0.573522412538296,2,2,2,1,80802.2035017454,109,A
55,3,17/11/92,23,f,120,The book read Sean,Non-sensible,edin_semantics,emo_sem_emo_sem,0.596985620213673,2,1,1,1,80803.5442638009,4,A
55,3,17/11/92,23,f,121,The dish served Kate,Non-sensible,edin_semantics,emo_sem_emo_sem,0.632316096147406,1,1,1,1,80804.9203265054,70,A
55,3,17/11/92,23,f,122,Erin described the church,Sensible,edin_semantics,emo_sem_emo_sem,0.550053431885317,2,2,2,1,80806.2140226325,117,A
55,3,17/11/92,23,f,123,The thread measured Amy,Non-sensible,edin_semantics,emo_sem_emo_sem,0.444129034498474,2,2,2,1,80807.4019152736,51,A
55,3,17/11/92,23,f,124,Tom offered the sweets,Sensible,edin_semantics,emo_sem_emo_sem,0.561598056185176,2,1,1,1,80808.7074010548,84,A
55,3,17/11/92,23,f,125,The flour weighed Jen,Non-sensible,edin_semantics,emo_sem_emo_sem,0.53816050606838,2,1,1,1,80809.9893376754,64,A
55,3,17/11/92,23,f,126,The spoon licked Will,Non-sensible,edin_semantics,emo_sem_emo_sem,0.526389774429845,2,2,2,1,80811.2595263356,21,A
55,3,17/11/92,23,f,127,The picture painted Ryan,Non-sensible,edin_semantics,emo_sem_emo_sem,0.679484013409819,1,2,2,1,80812.6826591379,35,A
55,3,17/11/92,23,f,128,The ball squeezed Josh,Non-sensible,edin_semantics,emo_sem_emo_sem,0.385168897366384,1,2,2,1,80813.8117128738,1,A
55,3,17/11/92,23,f,129,The jar labeled Liz,Non-sensible,edin_semantics,emo_sem_emo_sem,0.5854086032341,2,2,2,1,80815.1407609651,61,A
55,3,17/11/92,23,f,130,The wine stored Leo,Non-sensible,edin_semantics,emo_sem_emo_sem,0.620402323547751,1,1,1,1,80816.5049936048,52,A
55,3,17/11/92,23,f,131,Lucy wiped the desk,Sensible,edin_semantics,emo_sem_emo_sem,0.644062773804762,2,2,2,1,80817.8927952898,115,A
55,3,17/11/92,23,f,132,Hugh kissed the rose,Sensible,edin_semantics,emo_sem_emo_sem,0.585298917110777,2,1,2,0,80819.2218055361,98,A
55,3,17/11/92,23,f,133,The shirt ironed Josh,Non-sensible,edin_semantics,emo_sem_emo_sem,0.584740223508561,2,2,2,1,80820.5508395157,55,A
55,3,17/11/92,23,f,134,The sofa sold Carl,Non-sensible,edin_semantics,emo_sem_emo_sem,0.514681583124911,2,1,1,1,80821.8092641793,38,A
55,3,17/11/92,23,f,135,Ben got the radio,Sensible,edin_semantics,emo_sem_emo_sem,0.4791003044229,2,1,1,1,80823.0323971741,88,A
55,3,17/11/92,23,f,136,Hugh dialed the hotline,Sensible,edin_semantics,emo_sem_emo_sem,0.667787688726094,1,1,1,1,80824.4437181926,138,A
55,3,17/11/92,23,f,137,The herbs chopped Phil,Non-sensible,edin_semantics,emo_sem_emo_sem,0.526475727296202,2,2,2,1,80825.7139379626,27,A
55,3,17/11/92,23,f,138,The tree hugged Amy,Non-sensible,edin_semantics,emo_sem_emo_sem,0.749977549625328,1,2,2,1,80827.2075976559,11,A
55,3,17/11/92,23,f,139,Tom visited the hospital,Sensible,edin_semantics,emo_sem_emo_sem,0.549644514350803,1,2,2,1,80828.5013181577,91,A
55,3,17/11/92,23,f,140,The eggs whisked Dan,Non-sensible,edin_semantics,emo_sem_emo_sem,0.490928765604622,1,1,1,1,80829.7362331093,62,A
55,3,17/11/92,23,f,141,The potatoes mashed Will,Non-sensible,edin_semantics,emo_sem_emo_sem,0.502667425287655,1,1,1,1,80830.9828924935,28,A
55,3,17/11/92,23,f,142,Zoe paid the debt,Sensible,edin_semantics,emo_sem_emo_sem,0.502376211836236,1,1,1,1,80832.2295541227,134,A
55,3,17/11/92,23,f,143,The museum visited Mary,Non-sensible,edin_semantics,emo_sem_emo_sem,0.620301296861726,2,1,1,1,80833.5938634145,16,A
55,3,17/11/92,23,f,144,The house built Kate,Non-sensible,edin_semantics,emo_sem_emo_sem,0.561765151127474,1,1,1,1,80834.89935112,46,A
55,3,17/11/92,23,f,145,Jay painted the portrait,Sensible,edin_semantics,emo_sem_emo_sem,0.503287376355729,1,1,1,1,80836.1460275024,110,A
55,3,17/11/92,23,f,146,The juice drank Matt,Non-sensible,edin_semantics,emo_sem_emo_sem,0.631864843613585,2,1,1,1,80837.5220748124,60,A
55,3,17/11/92,23,f,147,The money offered Matt,Non-sensible,edin_semantics,emo_sem_emo_sem,0.655667372688185,2,2,2,1,80838.9216510776,9,A
55,3,17/11/92,23,f,148,Josh taught the rules,Sensible,edin_semantics,emo_sem_emo_sem,0.596920514130034,1,1,1,1,80840.2624525816,90,A
55,3,17/11/92,23,f,149,The garlic crushed Erin,Non-sensible,edin_semantics,emo_sem_emo_sem,0.714069457622827,2,1,1,1,80841.7208315106,6,A
55,3,17/11/92,23,f,150,The papers filed Lara,Non-sensible,edin_semantics,emo_sem_emo_sem,0.502863384986995,1,1,1,1,80842.967472293,24,A
55,3,17/11/92,23,f,151,Owen swallowed the gum,Sensible,edin_semantics,emo_sem_emo_sem,0.596837768462137,1,2,2,1,80844.3082070874,97,A
55,3,17/11/92,23,f,152,Fred stored the rice,Sensible,edin_semantics,emo_sem_emo_sem,0.90257082451717,2,2,2,1,80845.9547804546,127,A
55,3,17/11/92,23,f,153,The bill paid Mike,Non-sensible,edin_semantics,emo_sem_emo_sem,0.490821965970099,2,2,2,1,80847.1896909161,59,A
55,3,17/11/92,23,f,154,Erin tidied the garage,Sensible,edin_semantics,emo_sem_emo_sem,0.538151205197209,1,2,1,0,80848.4716371583,77,A
55,3,17/11/92,23,f,155,Luke fixed the radio,Sensible,edin_semantics,emo_sem_emo_sem,0.867335923045175,2,1,1,1,80850.0829345719,112,A
55,3,17/11/92,23,f,156,Luke watered the plants,Sensible,edin_semantics,emo_sem_emo_sem,0.549652211615467,1,2,2,1,80851.376636472,129,A
55,3,17/11/92,23,f,157,Ryan stroked the blanket,Sensible,edin_semantics,emo_sem_emo_sem,0.561581378759001,1,1,1,1,80852.6821001235,116,A
55,3,17/11/92,23,f,158,Phil cancelled the party,Sensible,edin_semantics,emo_sem_emo_sem,0.655146523975418,1,1,1,1,80854.0816869725,82,A
55,3,17/11/92,23,f,159,Ian mailed the invite,Sensible,edin_semantics,emo_sem_emo_sem,0.608818892185809,2,2,2,1,80855.4342258533,89,A
55,3,17/11/92,23,f,160,Amy lifted the crate,Sensible,edin_semantics,emo_sem_emo_sem,0.64386553123768,1,1,1,1,80856.8220490265,144,A
55,3,17/11/92,23,f,161,The scarf knitted Tom,Non-sensible,edin_semantics,emo_sem_emo_sem,0.691043070080923,1,1,1,1,80858.2568945102,66,A
55,3,17/11/92,23,f,162,Max searched the internet,Sensible,edin_semantics,emo_sem_emo_sem,0.607618759284378,1,2,2,1,80859.6094022812,85,A
55,3,17/11/92,23,f,163,The plans cancelled Ian,Non-sensible,edin_semantics,emo_sem_emo_sem,0.678252770696417,2,2,2,1,80861.0325273863,7,A
55,3,17/11/92,23,f,164,Beth washed the pan,Sensible,edin_semantics,emo_sem_emo_sem,0.655814262267086,1,1,1,1,80862.4320715795,132,A
55,3,17/11/92,23,f,165,Rose built the shed,Sensible,edin_semantics,emo_sem_emo_sem,0.655481996727758,2,2,2,1,80863.8316523348,121,A
55,3,17/11/92,23,f,166,Kate wore the dress,Sensible,edin_semantics,emo_sem_emo_sem,0.678991388034774,2,1,1,1,80865.2547168238,100,A
55,3,17/11/92,23,f,167,Joe entered the office,Sensible,edin_semantics,emo_sem_emo_sem,0.725908823253121,1,2,2,1,80866.7248793132,133,A
55,3,17/11/92,23,f,168,Josh scrubbed the pot,Sensible,edin_semantics,emo_sem_emo_sem,0.538215990571189,1,2,2,1,80868.0068354978,131,A
55,3,17/11/92,23,f,169,The pill swallowed Luke,Non-sensible,edin_semantics,emo_sem_emo_sem,0.53797705443867,2,1,1,1,80869.2887766085,22,A
55,3,17/11/92,23,f,170,The teeth brushed Carl,Non-sensible,edin_semantics,emo_sem_emo_sem,0.596736100327689,1,1,1,1,80870.6295607937,72,A
55,3,17/11/92,23,f,171,Max kicked the door,Sensible,edin_semantics,emo_sem_emo_sem,0.620585133743589,2,1,2,0,80871.9938425036,114,A
55,3,17/11/92,23,f,172,The lever pulled Hugh,Non-sensible,edin_semantics,emo_sem_emo_sem,0.514608779776609,2,2,2,1,80873.2522735816,45,A
55,3,17/11/92,23,f,173,The kettle got Lily,Non-sensible,edin_semantics,emo_sem_emo_sem,0.525834929459961,2,2,2,1,80874.5224599966,13,A
