subject_column,AssignedList_column,subject_dob_column,subject_age_column,subject_gender_column,trialnum_column,Stim_column,Type_column,Experiment_column,OrderGroup_column,ReactionTime_column,StimSide_column,StimPosition_column,Response_column,Valid_column,TrialEndSecs_column,PairID_column,List_column
56,4,24/11/93,22,m,1,Phil passed the towels,Sensible,edin_semantics,sem_emo_sem_emo,6.90621227535303,1,2,2,1,85510.0402057352,43,B
56,4,24/11/93,22,m,2,Josh ironed the shirt,Sensible,edin_semantics,sem_emo_sem_emo,1.54686868583667,2,2,2,1,85512.3335984616,55,B
56,4,24/11/93,22,m,3,The rose kissed Hugh,Non-sensible,edin_semantics,sem_emo_sem_emo,1.75911485226243,1,1,1,1,85514.8387181092,98,B
56,4,24/11/93,22,m,4,Matt drank the juice,Sensible,edin_semantics,sem_emo_sem_emo,5.84036949469009,1,1,1,1,85521.4249307566,60,B
56,4,24/11/93,22,m,5,The plate licked Jane,Non-sensible,edin_semantics,sem_emo_sem_emo,2.65593196637928,1,1,1,1,85524.8239162563,96,B
56,4,24/11/93,22,m,6,The message typed Eve,Non-sensible,edin_semantics,sem_emo_sem_emo,0.926442629017401,2,1,1,1,85526.4939685464,124,B
56,4,24/11/93,22,m,7,Ryan entered the room,Sensible,edin_semantics,sem_emo_sem_emo,1.97353998797189,1,1,1,1,85529.2107689318,58,B
56,4,24/11/93,22,m,8,The stairs climbed Ben,Non-sensible,edin_semantics,sem_emo_sem_emo,3.74902982308413,1,2,2,1,85533.7035495326,143,B
56,4,24/11/93,22,m,9,Amy hugged the tree,Sensible,edin_semantics,sem_emo_sem_emo,1.67935508411028,1,2,2,1,85536.1262891326,11,B
56,4,24/11/93,22,m,10,Carl brushed the teeth,Sensible,edin_semantics,sem_emo_sem_emo,1.62081252397911,1,1,1,1,85538.4903251712,72,B
56,4,24/11/93,22,m,11,Liz sliced the tomato,Sensible,edin_semantics,sem_emo_sem_emo,2.22059802667354,2,2,2,1,85541.4541297144,3,B
56,4,24/11/93,22,m,12,Jeff watered the garden,Sensible,edin_semantics,sem_emo_sem_emo,1.65602401291835,1,1,1,1,85543.8533881465,54,B
56,4,24/11/93,22,m,13,The rope pulled Emma,Non-sensible,edin_semantics,sem_emo_sem_emo,1.58538134206901,2,1,1,1,85546.1820924263,120,B
56,4,24/11/93,22,m,14,The opera watched Adam,Non-sensible,edin_semantics,sem_emo_sem_emo,1.37404762301594,2,1,1,1,85548.2991085918,108,B
56,4,24/11/93,22,m,15,The socks knitted Ryan,Non-sensible,edin_semantics,sem_emo_sem_emo,3.07924148521852,1,2,2,1,85552.1214286264,141,B
56,4,24/11/93,22,m,16,Luke climbed the hill,Sensible,edin_semantics,sem_emo_sem_emo,1.44437887509412,2,1,1,1,85554.3089922091,68,B
56,4,24/11/93,22,m,17,Jack mixed the fruits,Sensible,edin_semantics,sem_emo_sem_emo,1.69110208249185,2,1,1,1,85556.7435333298,8,B
56,4,24/11/93,22,m,18,Matt offered the money,Sensible,edin_semantics,sem_emo_sem_emo,1.47972346268944,2,2,2,1,85558.9663629238,9,B
56,4,24/11/93,22,m,19,Ryan painted the picture,Sensible,edin_semantics,sem_emo_sem_emo,1.7262061303627,1,2,2,1,85561.4362502357,35,B
56,4,24/11/93,22,m,20,The bath cleaned Jack,Non-sensible,edin_semantics,sem_emo_sem_emo,1.12647611215652,2,1,1,1,85563.3062420381,80,B
56,4,24/11/93,22,m,21,The shoes counted Lucy,Non-sensible,edin_semantics,sem_emo_sem_emo,2.89055506307341,1,2,2,1,85566.9404074037,123,B
56,4,24/11/93,22,m,22,The ticket took Tim,Non-sensible,edin_semantics,sem_emo_sem_emo,2.56163109031331,1,1,1,1,85570.2452636123,128,B
56,4,24/11/93,22,m,23,Matt pushed the trolley,Sensible,edin_semantics,sem_emo_sem_emo,1.95006266862038,1,1,1,1,85572.9385626244,26,B
56,4,24/11/93,22,m,24,Lily got the kettle,Sensible,edin_semantics,sem_emo_sem_emo,1.33853658191219,2,2,2,1,85575.0203012327,13,B
56,4,24/11/93,22,m,25,Max kissed the mirror,Sensible,edin_semantics,sem_emo_sem_emo,2.82040694191528,1,2,2,1,85578.5839249542,23,B
56,4,24/11/93,22,m,26,Jake dusted the shelf,Sensible,edin_semantics,sem_emo_sem_emo,1.32663660027902,2,2,2,1,85580.6538697391,47,B
56,4,24/11/93,22,m,27,The perfume sniffed Tim,Non-sensible,edin_semantics,sem_emo_sem_emo,5.38437158834131,1,2,2,1,85586.7814462403,93,B
56,4,24/11/93,22,m,28,Erin crushed the garlic,Sensible,edin_semantics,sem_emo_sem_emo,1.13826769057778,2,1,1,1,85588.6631619493,6,B
56,4,24/11/93,22,m,29,Joe solved the puzzle,Sensible,edin_semantics,sem_emo_sem_emo,3.3261593694333,1,1,1,1,85592.7325268731,34,B
56,4,24/11/93,22,m,30,Beth wiped the table,Sensible,edin_semantics,sem_emo_sem_emo,0.714808716380503,2,1,1,1,85594.1909183101,40,B
56,4,24/11/93,22,m,31,The radio got Ben,Non-sensible,edin_semantics,sem_emo_sem_emo,2.17370849406871,2,1,1,1,85597.1076412097,88,B
56,4,24/11/93,22,m,32,The donut iced Joe,Non-sensible,edin_semantics,sem_emo_sem_emo,2.49107469303999,1,2,2,1,85600.3419702064,119,B
56,4,24/11/93,22,m,33,The curtains measured Rob,Non-sensible,edin_semantics,sem_emo_sem_emo,0.844167135990574,2,1,1,1,85601.9297017821,126,B
56,4,24/11/93,22,m,34,Lara filed the papers,Sensible,edin_semantics,sem_emo_sem_emo,2.45551009176415,1,1,1,1,85605.1287554667,24,B
56,4,24/11/93,22,m,35,The onion sliced Liam,Non-sensible,edin_semantics,sem_emo_sem_emo,2.57350413150562,1,1,1,1,85608.4453830483,78,B
56,4,24/11/93,22,m,36,The trophy polished Anna,Non-sensible,edin_semantics,sem_emo_sem_emo,1.07945957456832,2,1,1,1,85610.268349333,104,B
56,4,24/11/93,22,m,37,Tim pulled the handle,Sensible,edin_semantics,sem_emo_sem_emo,4.13756595599989,1,2,1,0,85615.1491833836,73,B
56,4,24/11/93,22,m,38,Will mashed the potatoes,Sensible,edin_semantics,sem_emo_sem_emo,0.879520703732851,2,1,1,1,85616.7722204191,28,B
56,4,24/11/93,22,m,39,Josh squeezed the ball,Sensible,edin_semantics,sem_emo_sem_emo,4.97244024030806,1,2,2,1,85622.4881327317,1,B
56,4,24/11/93,22,m,40,The monitor punched Erin,Non-sensible,edin_semantics,sem_emo_sem_emo,1.35005105857272,2,2,2,1,85624.5816077548,125,B
56,4,24/11/93,22,m,41,The internet searched Max,Non-sensible,edin_semantics,sem_emo_sem_emo,2.03246228017088,1,2,2,1,85627.3572508939,85,B
56,4,24/11/93,22,m,42,Bill counted the sheets,Sensible,edin_semantics,sem_emo_sem_emo,1.75007889703556,1,1,1,1,85629.850580246,48,B
56,4,24/11/93,22,m,43,The office entered Joe,Non-sensible,edin_semantics,sem_emo_sem_emo,1.7144610562973,2,2,2,1,85632.308620495,133,B
56,4,24/11/93,22,m,44,The rules taught Josh,Non-sensible,edin_semantics,sem_emo_sem_emo,2.05601689295145,1,1,1,1,85635.10779291,90,B
56,4,24/11/93,22,m,45,Jon trimmed the bushes,Sensible,edin_semantics,sem_emo_sem_emo,4.4548821227072,1,1,1,1,85640.3061961752,32,B
56,4,24/11/93,22,m,46,The radio fixed Luke,Non-sensible,edin_semantics,sem_emo_sem_emo,2.76063345978037,1,1,1,1,85643.8110031212,112,B
56,4,24/11/93,22,m,47,The shed built Rose,Non-sensible,edin_semantics,sem_emo_sem_emo,1.19739460189885,2,2,2,1,85645.7515862794,121,B
56,4,24/11/93,22,m,48,The house dusted Alex,Non-sensible,edin_semantics,sem_emo_sem_emo,0.809217995702056,2,1,1,1,85647.304098348,122,B
56,4,24/11/93,22,m,49,The report wrote Alex,Non-sensible,edin_semantics,sem_emo_sem_emo,0.795718585184659,2,2,2,1,85648.8448101789,149,B
56,4,24/11/93,22,m,50,The portrait painted Jay,Non-sensible,edin_semantics,sem_emo_sem_emo,1.43079287026194,1,1,1,1,85651.0205802588,110,B
56,4,24/11/93,22,m,51,The door kicked Max,Non-sensible,edin_semantics,sem_emo_sem_emo,1.4562788567564,1,1,1,1,85653.2199171389,114,B
56,4,24/11/93,22,m,52,The salt passed Leo,Non-sensible,edin_semantics,sem_emo_sem_emo,1.47916990058729,1,1,1,1,85655.4427489779,118,B
56,4,24/11/93,22,m,53,The carrots chopped Fred,Non-sensible,edin_semantics,sem_emo_sem_emo,1.05620996617654,2,1,1,1,85657.2422029848,102,B
56,4,24/11/93,22,m,54,The rope pulled Andy,Non-sensible,edin_semantics,sem_emo_sem_emo,1.04436707260902,2,1,1,1,85659.0298285304,148,B
56,4,24/11/93,22,m,55,The invite mailed Ian,Non-sensible,edin_semantics,sem_emo_sem_emo,0.856542103429092,2,2,2,1,85660.6294046032,89,B
56,4,24/11/93,22,m,56,The button pushed Ian,Non-sensible,edin_semantics,sem_emo_sem_emo,0.762571889295941,2,2,2,1,85662.1347942968,101,B
56,4,24/11/93,22,m,57,The fat chewed Adam,Non-sensible,edin_semantics,sem_emo_sem_emo,1.25599008078279,2,1,1,1,85664.1341778737,106,B
56,4,24/11/93,22,m,58,Dan whisked the eggs,Sensible,edin_semantics,sem_emo_sem_emo,4.37276282013045,1,1,1,1,85669.2503107773,62,B
56,4,24/11/93,22,m,59,Ella watched the movie,Sensible,edin_semantics,sem_emo_sem_emo,1.73829597803706,1,2,2,1,85671.7318905653,33,B
56,4,24/11/93,22,m,60,Rob mailed the parcel,Sensible,edin_semantics,sem_emo_sem_emo,1.00937399374379,2,1,1,1,85673.4842654943,14,B
56,4,24/11/93,22,m,61,The poster read Luke,Non-sensible,edin_semantics,sem_emo_sem_emo,2.38512367590738,1,2,2,1,85676.6127592537,79,B
56,4,24/11/93,22,m,62,The crate lifted Amy,Non-sensible,edin_semantics,sem_emo_sem_emo,2.94984682431095,1,1,1,1,85680.3057298489,144,B
56,4,24/11/93,22,m,63,Leo stored the wine,Sensible,edin_semantics,sem_emo_sem_emo,3.54944214025454,1,1,1,1,85684.5985164151,52,B
56,4,24/11/93,22,m,64,The lemon squeezed Jay,Non-sensible,edin_semantics,sem_emo_sem_emo,1.29160343144031,2,1,1,1,85686.6332128283,76,B
56,4,24/11/93,22,m,65,Andy grated the cheese,Sensible,edin_semantics,sem_emo_sem_emo,2.24412249181478,1,2,2,1,85689.620521952,65,B
56,4,24/11/93,22,m,66,The hair trimmed Bill,Non-sensible,edin_semantics,sem_emo_sem_emo,1.4564154833206,2,2,2,1,85691.819830288,107,B
56,4,24/11/93,22,m,67,The desk wiped Lucy,Non-sensible,edin_semantics,sem_emo_sem_emo,1.50322419458826,1,2,2,1,85694.0662019867,115,B
56,4,24/11/93,22,m,68,Tom knitted the scarf,Sensible,edin_semantics,sem_emo_sem_emo,1.29120862556738,2,1,1,1,85696.1008762702,66,B
56,4,24/11/93,22,m,69,Kate lifted the box,Sensible,edin_semantics,sem_emo_sem_emo,1.69141863279219,2,2,2,1,85698.5354260504,69,B
56,4,24/11/93,22,m,70,Max lent the bucket,Sensible,edin_semantics,sem_emo_sem_emo,1.29132119816495,1,2,2,1,85700.5700903916,19,B
56,4,24/11/93,22,m,71,The garage tidied Erin,Non-sensible,edin_semantics,sem_emo_sem_emo,1.96174552307639,1,2,2,1,85703.2751566074,77,B
56,4,24/11/93,22,m,72,Jon polished the coins,Sensible,edin_semantics,sem_emo_sem_emo,1.50309398239187,2,2,2,1,85705.521568396,29,B
56,4,24/11/93,22,m,73,Tim ate the ham,Sensible,edin_semantics,sem_emo_sem_emo,2.09134576529323,2,2,2,1,85708.3559840513,67,B
56,4,24/11/93,22,m,74,The ice crushed Josh,Non-sensible,edin_semantics,sem_emo_sem_emo,1.38551623675448,2,2,2,1,85710.4847298963,81,B
56,4,24/11/93,22,m,75,The carrots grated Tom,Non-sensible,edin_semantics,sem_emo_sem_emo,2.1970414895768,1,1,1,1,85713.4250054843,140,B
56,4,24/11/93,22,m,76,The cream whisked Tom,Non-sensible,edin_semantics,sem_emo_sem_emo,5.98423246016318,1,2,2,1,85720.1523290019,137,B
56,4,24/11/93,22,m,77,Jon jumped the fence,Sensible,edin_semantics,sem_emo_sem_emo,1.4439831070631,2,2,2,1,85722.3399240151,17,B
56,4,24/11/93,22,m,78,The car lent Fred,Non-sensible,edin_semantics,sem_emo_sem_emo,0.903172494567116,2,1,1,1,85723.9864739698,94,B
56,4,24/11/93,22,m,79,Liz scrubbed the bowl,Sensible,edin_semantics,sem_emo_sem_emo,1.37353607518889,2,1,1,1,85726.1034612705,56,B
56,4,24/11/93,22,m,80,Jane punched the wall,Sensible,edin_semantics,sem_emo_sem_emo,1.58559975215758,1,1,1,1,85728.4321559288,50,B
56,4,24/11/93,22,m,81,The turnip mashed Ella,Non-sensible,edin_semantics,sem_emo_sem_emo,1.56189600472862,2,2,2,1,85730.7373405542,103,B
56,4,24/11/93,22,m,82,Amy measured the thread,Sensible,edin_semantics,sem_emo_sem_emo,1.37355114900856,2,2,2,1,85732.8543384388,51,B
56,4,24/11/93,22,m,83,Leah sucked the lolly,Sensible,edin_semantics,sem_emo_sem_emo,1.17372036070446,2,1,1,1,85734.771392321,12,B
56,4,24/11/93,22,m,84,The rice stored Fred,Non-sensible,edin_semantics,sem_emo_sem_emo,1.07976457895711,2,2,2,1,85736.5943621335,127,B
56,4,24/11/93,22,m,85,Lily dented the lorry,Sensible,edin_semantics,sem_emo_sem_emo,6.18424509651959,1,2,2,1,85743.5216598011,71,B
56,4,24/11/93,22,m,86,The dessert served Fred,Non-sensible,edin_semantics,sem_emo_sem_emo,1.82046274712775,1,2,2,1,85746.0856712726,145,B
56,4,24/11/93,22,m,87,John described the pen,Sensible,edin_semantics,sem_emo_sem_emo,2.3617082554556,1,1,1,1,85749.1905507654,42,B
56,4,24/11/93,22,m,88,Liz labeled the jar,Sensible,edin_semantics,sem_emo_sem_emo,1.12691517735948,2,2,2,1,85751.0605643768,61,B
56,4,24/11/93,22,m,89,Tom dialed the number,Sensible,edin_semantics,sem_emo_sem_emo,3.33750995834998,1,2,2,1,85755.1416480756,63,B
56,4,24/11/93,22,m,90,Erin posted the card,Sensible,edin_semantics,sem_emo_sem_emo,1.69142953725532,1,1,1,1,85757.5761776505,36,B
56,4,24/11/93,22,m,91,The dress wore Kate,Non-sensible,edin_semantics,sem_emo_sem_emo,1.09158181493694,2,1,1,1,85759.4109351928,100,B
56,4,24/11/93,22,m,92,The nuts mixed Liam,Non-sensible,edin_semantics,sem_emo_sem_emo,1.22128083879943,2,2,2,1,85761.3750232522,83,B
56,4,24/11/93,22,m,93,Mike paid the bill,Sensible,edin_semantics,sem_emo_sem_emo,1.59725277966936,2,2,2,1,85763.715470361,59,B
56,4,24/11/93,22,m,94,The plants watered Luke,Non-sensible,edin_semantics,sem_emo_sem_emo,1.30308583613078,2,2,2,1,85765.7619262807,129,B
56,4,24/11/93,22,m,95,The gift posted Jack,Non-sensible,edin_semantics,sem_emo_sem_emo,0.903601617450477,2,2,2,1,85767.4084589165,111,B
56,4,24/11/93,22,m,96,Hugh pulled the lever,Sensible,edin_semantics,sem_emo_sem_emo,6.30185395196895,1,2,2,1,85774.4533827584,45,B
56,4,24/11/93,22,m,97,The sugar weighed Liz,Non-sensible,edin_semantics,sem_emo_sem_emo,1.33819277046132,2,2,2,1,85776.535131309,139,B
56,4,24/11/93,22,m,98,The debt paid Zoe,Non-sensible,edin_semantics,sem_emo_sem_emo,1.66779602743918,1,1,1,1,85778.9461245521,134,B
56,4,24/11/93,22,m,99,Ewan wrote the story,Sensible,edin_semantics,sem_emo_sem_emo,1.2087022143678,1,1,1,1,85780.89845535,74,B
56,4,24/11/93,22,m,100,Ian cancelled the plans,Sensible,edin_semantics,sem_emo_sem_emo,1.16228317748755,2,2,2,1,85782.8038436966,7,B
56,4,24/11/93,22,m,101,The box labeled Ian,Non-sensible,edin_semantics,sem_emo_sem_emo,0.891653848579153,2,1,1,1,85784.4385728874,136,B
56,4,24/11/93,22,m,102,Sean read the book,Sensible,edin_semantics,sem_emo_sem_emo,1.30324266802927,2,1,1,1,85786.484984227,4,B
56,4,24/11/93,22,m,103,Joe wore the jumper,Sensible,edin_semantics,sem_emo_sem_emo,1.86735324190522,1,2,2,1,85789.0959660525,25,B
56,4,24/11/93,22,m,104,The kettle carried John,Non-sensible,edin_semantics,sem_emo_sem_emo,1.6795067845087,2,2,2,1,85791.5187736451,105,B
56,4,24/11/93,22,m,105,The hotline dialed Hugh,Non-sensible,edin_semantics,sem_emo_sem_emo,1.27980704224319,2,1,1,1,85793.541650898,138,B
56,4,24/11/93,22,m,106,The candy sucked Sam,Non-sensible,edin_semantics,sem_emo_sem_emo,1.74995285421028,1,2,2,1,85796.0350267544,87,B
56,4,24/11/93,22,m,107,Rob stroked the fur,Sensible,edin_semantics,sem_emo_sem_emo,1.32651889616682,1,2,2,1,85798.1049712186,41,B
56,4,24/11/93,22,m,108,Carl sold the sofa,Sensible,edin_semantics,sem_emo_sem_emo,1.12729523013695,1,1,1,1,85799.9749854714,38,B
56,4,24/11/93,22,m,109,The report filed Ian,Non-sensible,edin_semantics,sem_emo_sem_emo,1.66764304417302,2,2,2,1,85802.3860220116,99,B
56,4,24/11/93,22,m,110,The problem solved Phil,Non-sensible,edin_semantics,sem_emo_sem_emo,0.92672165510885,2,2,1,0,85804.0561131088,109,B
56,4,24/11/93,22,m,111,The beer drank Jack,Non-sensible,edin_semantics,sem_emo_sem_emo,1.89137514321192,1,2,2,1,85806.6905818752,135,B
56,4,24/11/93,22,m,112,The church described Erin,Non-sensible,edin_semantics,sem_emo_sem_emo,2.71457106313028,1,2,2,1,85810.1483514369,117,B
56,4,24/11/93,22,m,113,Mark washed the dishes,Sensible,edin_semantics,sem_emo_sem_emo,1.42096056815353,2,2,2,1,85812.3123966481,57,B
56,4,24/11/93,22,m,114,Mary visited the museum,Sensible,edin_semantics,sem_emo_sem_emo,0.750144644567627,2,1,1,1,85813.8060319668,16,B
56,4,24/11/93,22,m,115,Phil typed the letter,Sensible,edin_semantics,sem_emo_sem_emo,2.35014118078107,1,2,2,1,85816.8991994196,49,B
56,4,24/11/93,22,m,116,The steak ate Mike,Non-sensible,edin_semantics,sem_emo_sem_emo,4.49020041129552,1,1,1,1,85822.1329058996,142,B
56,4,24/11/93,22,m,117,The gum swallowed Owen,Non-sensible,edin_semantics,sem_emo_sem_emo,2.09137912013102,1,2,2,1,85824.9673382322,97,B
56,4,24/11/93,22,m,118,The pillow hugged Kate,Non-sensible,edin_semantics,sem_emo_sem_emo,1.83240121514245,1,1,1,1,85827.543021333,86,B
56,4,24/11/93,22,m,119,The pan washed Beth,Non-sensible,edin_semantics,sem_emo_sem_emo,2.00896828339319,1,1,1,1,85830.2951191602,132,B
56,4,24/11/93,22,m,120,Sam tidied the room,Sensible,edin_semantics,sem_emo_sem_emo,1.55019037918828,2,1,1,1,85832.58854909,2,B
56,4,24/11/93,22,m,121,The sweets offered Tom,Non-sensible,edin_semantics,sem_emo_sem_emo,1.94978171821276,1,1,1,1,85835.2818086535,84,B
56,4,24/11/93,22,m,122,Luke swallowed the pill,Sensible,edin_semantics,sem_emo_sem_emo,0.926781308968202,2,1,1,1,85836.9519000715,22,B
56,4,24/11/93,22,m,123,Matt kicked the bike,Sensible,edin_semantics,sem_emo_sem_emo,1.70309314852057,2,2,2,1,85839.3982417508,39,B
56,4,24/11/93,22,m,124,Mary iced the cake,Sensible,edin_semantics,sem_emo_sem_emo,1.03264348676021,2,1,1,1,85841.1741161287,44,B
56,4,24/11/93,22,m,125,The hospital visited Tom,Non-sensible,edin_semantics,sem_emo_sem_emo,1.63233533933817,1,2,2,1,85843.5498927514,91,B
56,4,24/11/93,22,m,126,Ben chewed the toffee,Sensible,edin_semantics,sem_emo_sem_emo,2.66735311360389,2,2,2,1,85846.9605797072,31,B
56,4,24/11/93,22,m,127,The hair brushed Dan,Non-sensible,edin_semantics,sem_emo_sem_emo,0.985325793430093,2,2,2,1,85848.6895052194,147,B
56,4,24/11/93,22,m,128,Beth took the photo,Sensible,edin_semantics,sem_emo_sem_emo,1.26761263994558,1,2,2,1,85850.7006325874,53,B
56,4,24/11/93,22,m,129,Dan carried the folder,Sensible,edin_semantics,sem_emo_sem_emo,1.46778274963435,1,1,1,1,85852.9117350676,30,B
56,4,24/11/93,22,m,130,Jen searched the room,Sensible,edin_semantics,sem_emo_sem_emo,0.985676340002101,2,1,1,1,85854.6405858522,10,B
56,4,24/11/93,22,m,131,The bed sold Jay,Non-sensible,edin_semantics,sem_emo_sem_emo,1.12669356007245,2,2,2,1,85856.5105580907,113,B
56,4,24/11/93,22,m,132,Jen fixed the laptop,Sensible,edin_semantics,sem_emo_sem_emo,0.926919218414696,2,2,2,1,85858.1806748454,37,B
56,4,24/11/93,22,m,133,Kate served the dish,Sensible,edin_semantics,sem_emo_sem_emo,0.950236498669256,2,1,1,1,85859.8743009915,70,B
56,4,24/11/93,22,m,134,The bowl dented Ian,Non-sensible,edin_semantics,sem_emo_sem_emo,3.73742554492492,1,1,1,1,85864.3552781473,146,B
56,4,24/11/93,22,m,135,The blanket stroked Ryan,Non-sensible,edin_semantics,sem_emo_sem_emo,1.03255785461806,2,1,1,1,85866.1311945396,116,B
56,4,24/11/93,22,m,136,Phil chopped the herbs,Sensible,edin_semantics,sem_emo_sem_emo,5.73711669191835,1,2,2,1,85872.6115825334,27,B
56,4,24/11/93,22,m,137,Ryan carried the gun,Sensible,edin_semantics,sem_emo_sem_emo,3.25561548022961,1,2,2,1,85876.6103435934,75,B
56,4,24/11/93,22,m,138,The ribbon cut Lucy,Non-sensible,edin_semantics,sem_emo_sem_emo,1.36204661466763,1,2,2,1,85878.7155999317,95,B
56,4,24/11/93,22,m,139,Jen weighed the flour,Sensible,edin_semantics,sem_emo_sem_emo,2.30309192980349,1,1,1,1,85881.7617688073,64,B
56,4,24/11/93,22,m,140,Tim cleaned the floor,Sensible,edin_semantics,sem_emo_sem_emo,1.29143729867064,2,2,2,1,85883.7963722118,5,B
56,4,24/11/93,22,m,141,The party cancelled Phil,Non-sensible,edin_semantics,sem_emo_sem_emo,1.40900285696262,1,1,1,1,85885.9486515022,82,B
56,4,24/11/93,22,m,142,The wallet carried Leo,Non-sensible,edin_semantics,sem_emo_sem_emo,2.36148278955079,1,1,1,1,85889.0535922524,150,B
56,4,24/11/93,22,m,143,The pot scrubbed Josh,Non-sensible,edin_semantics,sem_emo_sem_emo,1.72634468125761,2,2,2,1,85891.5234183069,131,B
56,4,24/11/93,22,m,144,Jon cut the paper,Sensible,edin_semantics,sem_emo_sem_emo,1.87971409768215,1,1,1,1,85894.1461715055,20,B
56,4,24/11/93,22,m,145,The hedge jumped Sara,Non-sensible,edin_semantics,sem_emo_sem_emo,1.291187458075,2,1,1,1,85896.1808400161,92,B
56,4,24/11/93,22,m,146,Phil sniffed the milk,Sensible,edin_semantics,sem_emo_sem_emo,0.903203283654875,2,1,1,1,85897.8273867635,18,B
56,4,24/11/93,22,m,147,Will licked the spoon,Sensible,edin_semantics,sem_emo_sem_emo,1.11494559954735,2,2,2,1,85899.6856543386,21,B
56,4,24/11/93,22,m,148,Eve taught the lesson,Sensible,edin_semantics,sem_emo_sem_emo,3.67877265723655,1,2,2,1,85904.1078150397,15,B
56,4,24/11/93,22,m,149,Kate built the house,Sensible,edin_semantics,sem_emo_sem_emo,1.032484730531,2,1,1,1,85905.8837670318,46,B
56,4,24/11/93,22,m,150,The trousers ironed Eve,Non-sensible,edin_semantics,sem_emo_sem_emo,4.45500367543718,1,1,1,1,85911.0821831258,130,B
56,4,24/11/93,22,m,151,Anna polished the trophy,Sensible,edin_semantics,sem_emo_sem_emo,1.50759367900901,2,2,2,1,85923.0079089464,104,A
56,4,24/11/93,22,m,152,Beth washed the pan,Sensible,edin_semantics,sem_emo_sem_emo,1.42971621443576,2,2,2,1,85925.1837027596,132,A
56,4,24/11/93,22,m,153,The coins polished Jon,Non-sensible,edin_semantics,sem_emo_sem_emo,0.772443960653618,2,1,1,1,85926.7008991054,29,A
56,4,24/11/93,22,m,154,Jay sold the bed,Sensible,edin_semantics,sem_emo_sem_emo,1.25468282752263,1,1,1,1,85928.7003006426,113,A
56,4,24/11/93,22,m,155,The fence jumped Jon,Non-sensible,edin_semantics,sem_emo_sem_emo,0.984822584316134,2,1,1,1,85930.4291828577,17,A
56,4,24/11/93,22,m,156,Jay squeezed the lemon,Sensible,edin_semantics,sem_emo_sem_emo,4.07832839639741,1,2,2,1,85935.2512129617,76,A
56,4,24/11/93,22,m,157,Rose built the shed,Sensible,edin_semantics,sem_emo_sem_emo,1.17328514413384,2,1,1,1,85937.1682710132,121,A
56,4,24/11/93,22,m,158,Amy lifted the crate,Sensible,edin_semantics,sem_emo_sem_emo,2.14751564149628,1,2,2,1,85940.0615291015,144,A
56,4,24/11/93,22,m,159,Ian filed the report,Sensible,edin_semantics,sem_emo_sem_emo,0.926251480123028,2,1,1,1,85941.7315801087,99,A
56,4,24/11/93,22,m,160,Luke read the poster,Sensible,edin_semantics,sem_emo_sem_emo,5.7367680696625,1,1,1,1,85948.2119886286,79,A
56,4,24/11/93,22,m,161,Hugh kissed the rose,Sensible,edin_semantics,sem_emo_sem_emo,4.12547803264169,1,2,2,1,85953.0811215438,98,A
56,4,24/11/93,22,m,162,Ella mashed the turnip,Sensible,edin_semantics,sem_emo_sem_emo,0.97303677884338,2,1,1,1,85954.798187485,103,A
56,4,24/11/93,22,m,163,Ian pushed the button,Sensible,edin_semantics,sem_emo_sem_emo,1.32610677141929,1,1,1,1,85956.8681236105,101,A
56,4,24/11/93,22,m,164,The pen described John,Non-sensible,edin_semantics,sem_emo_sem_emo,1.92602825924405,1,2,2,1,85959.5379244564,42,A
56,4,24/11/93,22,m,165,The milk sniffed Phil,Non-sensible,edin_semantics,sem_emo_sem_emo,1.16039029014064,1,2,2,1,85961.4431957403,18,A
56,4,24/11/93,22,m,166,The movie watched Ella,Non-sensible,edin_semantics,sem_emo_sem_emo,0.996056751988363,2,1,1,1,85963.1838618365,33,A
56,4,24/11/93,22,m,167,The jumper wore Joe,Non-sensible,edin_semantics,sem_emo_sem_emo,1.38461886318692,2,1,1,1,85965.3126487337,25,A
56,4,24/11/93,22,m,168,The potatoes mashed Will,Non-sensible,edin_semantics,sem_emo_sem_emo,1.2085537211824,2,2,2,1,85967.2649744002,28,A
56,4,24/11/93,22,m,169,The trolley pushed Matt,Non-sensible,edin_semantics,sem_emo_sem_emo,1.97308809398965,2,2,2,1,85969.9817981981,26,A
56,4,24/11/93,22,m,170,Ryan knitted the socks,Sensible,edin_semantics,sem_emo_sem_emo,2.49061959185929,2,1,1,1,85973.2160976886,141,A
56,4,24/11/93,22,m,171,Joe iced the donut,Sensible,edin_semantics,sem_emo_sem_emo,1.98484311036009,1,1,1,1,85975.9446476382,119,A
56,4,24/11/93,22,m,172,Bill trimmed the hair,Sensible,edin_semantics,sem_emo_sem_emo,1.06693322744104,2,1,1,1,85977.7558589064,107,A
56,4,24/11/93,22,m,173,Erin tidied the garage,Sensible,edin_semantics,sem_emo_sem_emo,1.19745650079858,2,1,1,1,85979.696928917,77,A
56,4,24/11/93,22,m,174,The parcel mailed Rob,Non-sensible,edin_semantics,sem_emo_sem_emo,1.13688570962404,2,2,2,1,85981.5782283319,14,A
56,4,24/11/93,22,m,175,The fruits mixed Jack,Non-sensible,edin_semantics,sem_emo_sem_emo,5.40700958439265,1,2,2,1,85987.7292744552,8,A
56,4,24/11/93,22,m,176,Jack cleaned the bath,Sensible,edin_semantics,sem_emo_sem_emo,1.33802310976898,2,2,2,1,85989.8109630313,80,A
56,4,24/11/93,22,m,177,The museum visited Mary,Non-sensible,edin_semantics,sem_emo_sem_emo,7.15978990297299,1,2,2,1,85997.7144815824,16,A
56,4,24/11/93,22,m,178,The room tidied Sam,Non-sensible,edin_semantics,sem_emo_sem_emo,1.12614994028991,2,2,2,1,85999.5844663289,2,A
56,4,24/11/93,22,m,179,Zoe paid the debt,Sensible,edin_semantics,sem_emo_sem_emo,1.2557780851057,1,2,2,1,86001.5838470193,134,A
56,4,24/11/93,22,m,180,Sara jumped the hedge,Sensible,edin_semantics,sem_emo_sem_emo,0.950053367749206,2,2,2,1,86003.2774962572,92,A
56,4,24/11/93,22,m,181,The mirror kissed Max,Non-sensible,edin_semantics,sem_emo_sem_emo,1.6673066092626,2,1,1,1,86005.6884862931,23,A
56,4,24/11/93,22,m,182,Luke fixed the radio,Sensible,edin_semantics,sem_emo_sem_emo,11.3233460167248,1,2,2,1,86017.755406371,112,A
56,4,24/11/93,22,m,183,The kettle got Lily,Non-sensible,edin_semantics,sem_emo_sem_emo,0.937991422673804,2,1,1,1,86019.4372319586,13,A
56,4,24/11/93,22,m,184,Ian mailed the invite,Sensible,edin_semantics,sem_emo_sem_emo,1.20873524849594,2,1,1,1,86021.3895836033,89,A
56,4,24/11/93,22,m,185,Rob measured the curtains,Sensible,edin_semantics,sem_emo_sem_emo,0.961803894038894,2,2,2,1,86023.0949686144,126,A
56,4,24/11/93,22,m,186,The book read Sean,Non-sensible,edin_semantics,sem_emo_sem_emo,0.867155037150951,2,2,2,1,86024.7061842445,4,A
56,4,24/11/93,22,m,187,The puzzle solved Joe,Non-sensible,edin_semantics,sem_emo_sem_emo,0.961642892798409,2,2,2,1,86026.4115670105,34,A
56,4,24/11/93,22,m,188,Eve ironed the trousers,Sensible,edin_semantics,sem_emo_sem_emo,2.10255074746965,1,2,2,1,86029.2577691127,130,A
56,4,24/11/93,22,m,189,Liz weighed the sugar,Sensible,edin_semantics,sem_emo_sem_emo,0.749616419299855,2,1,1,1,86030.751402507,139,A
56,4,24/11/93,22,m,190,Adam watched the opera,Sensible,edin_semantics,sem_emo_sem_emo,1.22037512651877,1,2,2,1,86032.7155194311,108,A
56,4,24/11/93,22,m,191,The wall punched Jane,Non-sensible,edin_semantics,sem_emo_sem_emo,1.6554906561505,2,2,2,1,86035.1147692037,50,A
56,4,24/11/93,22,m,192,The photo took Beth,Non-sensible,edin_semantics,sem_emo_sem_emo,0.679286129379761,2,1,1,1,86036.5378590296,53,A
56,4,24/11/93,22,m,193,Lucy wiped the desk,Sensible,edin_semantics,sem_emo_sem_emo,1.27923391624063,2,1,1,1,86038.5608042751,115,A
56,4,24/11/93,22,m,194,The letter typed Phil,Non-sensible,edin_semantics,sem_emo_sem_emo,0.984928421792574,2,1,1,1,86040.289659229,49,A
56,4,24/11/93,22,m,195,The scarf knitted Tom,Non-sensible,edin_semantics,sem_emo_sem_emo,1.44396642962238,2,2,2,1,86042.4772295467,66,A
56,4,24/11/93,22,m,196,The flour weighed Jen,Non-sensible,edin_semantics,sem_emo_sem_emo,4.10187499118911,1,2,2,1,86047.3228325446,64,A
56,4,24/11/93,22,m,197,The money offered Matt,Non-sensible,edin_semantics,sem_emo_sem_emo,1.50250482042611,1,1,1,1,86049.5691760199,9,A
56,4,24/11/93,22,m,198,Ian labeled the box,Sensible,edin_semantics,sem_emo_sem_emo,1.27890998938528,2,2,2,1,86051.5920984943,136,A
56,4,24/11/93,22,m,199,Kate wore the dress,Sensible,edin_semantics,sem_emo_sem_emo,0.785064278636128,2,2,2,1,86053.1210370277,100,A
56,4,24/11/93,22,m,200,Tim sniffed the perfume,Sensible,edin_semantics,sem_emo_sem_emo,3.38443893947988,1,1,1,1,86057.2491779956,93,A
56,4,24/11/93,22,m,201,Fred stored the rice,Sensible,edin_semantics,sem_emo_sem_emo,1.04395238211146,2,1,1,1,86059.036880514,127,A
56,4,24/11/93,22,m,202,The bushes trimmed Jon,Non-sensible,edin_semantics,sem_emo_sem_emo,1.25562862974766,2,2,2,1,86061.0362737124,32,A
56,4,24/11/93,22,m,203,The tree hugged Amy,Non-sensible,edin_semantics,sem_emo_sem_emo,1.43201769859297,1,1,1,1,86063.2120777886,11,A
56,4,24/11/93,22,m,204,The paper cut Jon,Non-sensible,edin_semantics,sem_emo_sem_emo,0.997152009556885,2,2,2,1,86064.9526900039,20,A
56,4,24/11/93,22,m,205,Lucy cut the ribbon,Sensible,edin_semantics,sem_emo_sem_emo,1.97328565729549,1,1,1,1,86067.6695368937,95,A
56,4,24/11/93,22,m,206,The juice drank Matt,Non-sensible,edin_semantics,sem_emo_sem_emo,1.19679100753274,1,2,2,1,86069.610135767,60,A
56,4,24/11/93,22,m,207,The teeth brushed Carl,Non-sensible,edin_semantics,sem_emo_sem_emo,0.973332482361002,2,2,2,1,86071.3272600793,72,A
56,4,24/11/93,22,m,208,Dan brushed the hair,Sensible,edin_semantics,sem_emo_sem_emo,1.52608958084602,1,1,1,1,86073.5971132666,147,A
56,4,24/11/93,22,m,209,Fred served the dessert,Sensible,edin_semantics,sem_emo_sem_emo,2.27917843172327,1,1,1,1,86076.6197666572,145,A
56,4,24/11/93,22,m,210,The table wiped Beth,Non-sensible,edin_semantics,sem_emo_sem_emo,2.33797371895344,1,2,2,1,86079.7011771694,40,A
56,4,24/11/93,22,m,211,Ben climbed the stairs,Sensible,edin_semantics,sem_emo_sem_emo,0.808819982616114,2,1,1,1,86081.2536305464,143,A
56,4,24/11/93,22,m,212,The lolly sucked Leah,Non-sensible,edin_semantics,sem_emo_sem_emo,2.16128028716776,2,2,2,1,86084.1585897701,12,A
56,4,24/11/93,22,m,213,The floor cleaned Tim,Non-sensible,edin_semantics,sem_emo_sem_emo,0.914441941407858,2,1,1,1,86085.8169098149,5,A
56,4,24/11/93,22,m,214,Alex dusted the house,Sensible,edin_semantics,sem_emo_sem_emo,0.761706908422639,2,2,2,1,86087.322363011,122,A
56,4,24/11/93,22,m,215,The ball squeezed Josh,Non-sensible,edin_semantics,sem_emo_sem_emo,1.11455368011957,1,1,1,1,86089.1805767052,1,A
56,4,24/11/93,22,m,216,Jack drank the beer,Sensible,edin_semantics,sem_emo_sem_emo,2.59654687574948,1,1,1,1,86092.5207271484,135,A
56,4,24/11/93,22,m,217,Andy pulled the rope,Sensible,edin_semantics,sem_emo_sem_emo,1.06765933672432,2,2,2,1,86094.3319791481,148,A
56,4,24/11/93,22,m,218,Ian dented the bowl,Sensible,edin_semantics,sem_emo_sem_emo,0.891052499238867,2,2,2,1,86095.9667352793,146,A
56,4,24/11/93,22,m,219,Tom grated the carrots,Sensible,edin_semantics,sem_emo_sem_emo,1.58477101259632,1,2,2,1,86098.2954620095,140,A
56,4,24/11/93,22,m,220,The wine stored Leo,Non-sensible,edin_semantics,sem_emo_sem_emo,1.102629323781,1,2,2,1,86100.1419280639,52,A
56,4,24/11/93,22,m,221,Josh crushed the ice,Sensible,edin_semantics,sem_emo_sem_emo,1.31456824080669,1,1,1,1,86102.2000892884,81,A
56,4,24/11/93,22,m,222,The bike kicked Matt,Non-sensible,edin_semantics,sem_emo_sem_emo,2.09057058590406,1,1,1,1,86105.0345976315,39,A
56,4,24/11/93,22,m,223,Max searched the internet,Sensible,edin_semantics,sem_emo_sem_emo,1.20833531109383,2,1,2,0,86106.9869172043,85,A
56,4,24/11/93,22,m,224,The bowl scrubbed Liz,Non-sensible,edin_semantics,sem_emo_sem_emo,0.867374088673387,2,2,2,1,86108.5981748487,56,A
56,4,24/11/93,22,m,225,Tom offered the sweets,Sensible,edin_semantics,sem_emo_sem_emo,0.761933015775867,2,2,2,1,86110.1036296484,84,A
56,4,24/11/93,22,m,226,Max kicked the door,Sensible,edin_semantics,sem_emo_sem_emo,3.23167472101341,1,2,2,1,86114.0788473208,114,A
56,4,24/11/93,22,m,227,The towels passed Phil,Non-sensible,edin_semantics,sem_emo_sem_emo,1.66701507511607,1,1,1,1,86116.4898694286,43,A
56,4,24/11/93,22,m,228,Hugh dialed the hotline,Sensible,edin_semantics,sem_emo_sem_emo,1.25599168437475,2,2,2,1,86118.4892619856,138,A
56,4,24/11/93,22,m,229,Jack posted the gift,Sensible,edin_semantics,sem_emo_sem_emo,1.8205964872177,1,1,1,1,86121.053166016,111,A
56,4,24/11/93,22,m,230,Josh scrubbed the pot,Sensible,edin_semantics,sem_emo_sem_emo,0.914414359504008,2,1,1,1,86122.711529358,131,A
56,4,24/11/93,22,m,231,Fred lent the car,Sensible,edin_semantics,sem_emo_sem_emo,2.3145743344794,1,2,2,1,86125.7693871817,94,A
56,4,24/11/93,22,m,232,Tom whisked the cream,Sensible,edin_semantics,sem_emo_sem_emo,0.844001003206358,2,1,1,1,86127.3571755247,137,A
56,4,24/11/93,22,m,233,Liam sliced the onion,Sensible,edin_semantics,sem_emo_sem_emo,0.879036096361233,2,2,2,1,86128.9802183331,78,A
56,4,24/11/93,22,m,234,The dish served Kate,Non-sensible,edin_semantics,sem_emo_sem_emo,1.46737671857409,2,2,2,1,86131.1912768747,70,A
56,4,24/11/93,22,m,235,The box lifted Kate,Non-sensible,edin_semantics,sem_emo_sem_emo,1.19716913599405,1,1,1,1,86133.1318545806,69,A
56,4,24/11/93,22,m,236,Adam chewed the fat,Sensible,edin_semantics,sem_emo_sem_emo,1.93782785565418,2,2,2,1,86135.8133767673,106,A
56,4,24/11/93,22,m,237,The room entered Ryan,Non-sensible,edin_semantics,sem_emo_sem_emo,1.0557917477563,2,2,2,1,86137.6128484138,58,A
56,4,24/11/93,22,m,238,Ryan stroked the blanket,Sensible,edin_semantics,sem_emo_sem_emo,4.50199744194106,1,2,2,1,86142.8583208146,116,A
56,4,24/11/93,22,m,239,The garden watered Jeff,Non-sensible,edin_semantics,sem_emo_sem_emo,1.83204425417352,2,2,2,1,86145.4339882001,54,A
56,4,24/11/93,22,m,240,Lucy counted the shoes,Sensible,edin_semantics,sem_emo_sem_emo,1.84396764836856,1,1,1,1,86148.0214115641,123,A
56,4,24/11/93,22,m,241,The house built Kate,Non-sensible,edin_semantics,sem_emo_sem_emo,1.63196041806077,1,2,2,1,86150.3971580391,46,A
56,4,24/11/93,22,m,242,Fred chopped the carrots,Sensible,edin_semantics,sem_emo_sem_emo,1.16153974934423,2,2,2,1,86152.3024415104,102,A
56,4,24/11/93,22,m,243,Phil cancelled the party,Sensible,edin_semantics,sem_emo_sem_emo,0.961560788564384,2,2,2,1,86154.007807599,82,A
56,4,24/11/93,22,m,244,The toffee chewed Ben,Non-sensible,edin_semantics,sem_emo_sem_emo,4.13711021337076,1,1,1,1,86158.8886644208,31,A
56,4,24/11/93,22,m,245,Erin described the church,Sensible,edin_semantics,sem_emo_sem_emo,0.914673180261161,2,1,1,1,86160.5469854278,117,A
56,4,24/11/93,22,m,246,Tom visited the hospital,Sensible,edin_semantics,sem_emo_sem_emo,1.06755766860442,1,1,1,1,86162.3581928474,91,A
56,4,24/11/93,22,m,247,Sam sucked the candy,Sensible,edin_semantics,sem_emo_sem_emo,1.1966168567742,1,1,1,1,86164.2987994181,87,A
56,4,24/11/93,22,m,248,The sofa sold Carl,Non-sensible,edin_semantics,sem_emo_sem_emo,2.37298796531104,1,2,2,1,86167.4154611884,38,A
56,4,24/11/93,22,m,249,The shelf dusted Jake,Non-sensible,edin_semantics,sem_emo_sem_emo,0.997370419645449,2,1,1,1,86169.156163526,47,A
56,4,24/11/93,22,m,250,The plans cancelled Ian,Non-sensible,edin_semantics,sem_emo_sem_emo,1.99650255228335,1,1,1,1,86171.896427119,7,A
56,4,24/11/93,22,m,251,The ham ate Tim,Non-sensible,edin_semantics,sem_emo_sem_emo,0.597187032151851,2,1,1,1,86173.2371869295,67,A
56,4,24/11/93,22,m,252,The eggs whisked Dan,Non-sensible,edin_semantics,sem_emo_sem_emo,1.02042663410248,2,2,2,1,86175.0013720386,62,A
56,4,24/11/93,22,m,253,The bucket lent Max,Non-sensible,edin_semantics,sem_emo_sem_emo,4.29003447094874,1,1,1,1,86180.0351457414,19,A
56,4,24/11/93,22,m,254,The room searched Jen,Non-sensible,edin_semantics,sem_emo_sem_emo,0.855780714991852,2,2,2,1,86181.6346679333,10,A
56,4,24/11/93,22,m,255,Emma pulled the rope,Sensible,edin_semantics,sem_emo_sem_emo,1.19700396538246,2,2,2,1,86183.5752238302,120,A
56,4,24/11/93,22,m,256,The tomato sliced Liz,Non-sensible,edin_semantics,sem_emo_sem_emo,0.820380642908276,2,1,1,1,86185.1394979711,3,A
56,4,24/11/93,22,m,257,The herbs chopped Phil,Non-sensible,edin_semantics,sem_emo_sem_emo,2.23221449216362,1,1,1,1,86188.1150283452,27,A
56,4,24/11/93,22,m,258,Mike ate the steak,Sensible,edin_semantics,sem_emo_sem_emo,1.45592734802631,2,2,2,1,86190.3143341155,142,A
56,4,24/11/93,22,m,259,The gun carried Ryan,Non-sensible,edin_semantics,sem_emo_sem_emo,0.773591174816829,2,1,1,1,86191.8315400829,75,A
56,4,24/11/93,22,m,260,The bill paid Mike,Non-sensible,edin_semantics,sem_emo_sem_emo,1.22007621581724,2,1,1,1,86193.7956374431,59,A
56,4,24/11/93,22,m,261,The handle pulled Tim,Non-sensible,edin_semantics,sem_emo_sem_emo,1.11446227502893,2,1,1,1,86195.6539149605,73,A
56,4,24/11/93,22,m,262,The spoon licked Will,Non-sensible,edin_semantics,sem_emo_sem_emo,0.879293954960303,2,1,1,1,86197.2769317906,21,A
56,4,24/11/93,22,m,263,Jay painted the portrait,Sensible,edin_semantics,sem_emo_sem_emo,4.34862449759385,1,2,2,1,86202.3695245139,110,A
56,4,24/11/93,22,m,264,Leo passed the salt,Sensible,edin_semantics,sem_emo_sem_emo,1.11416689223552,2,2,2,1,86204.2277160784,118,A
56,4,24/11/93,22,m,265,Kate hugged the pillow,Sensible,edin_semantics,sem_emo_sem_emo,1.9611935645662,1,2,2,1,86206.9327678618,86,A
56,4,24/11/93,22,m,266,The lesson taught Eve,Non-sensible,edin_semantics,sem_emo_sem_emo,0.879164063488133,2,1,1,1,86208.5558036144,15,A
56,4,24/11/93,22,m,267,Josh taught the rules,Sensible,edin_semantics,sem_emo_sem_emo,4.37231830268865,1,2,2,1,86213.6719118226,90,A
56,4,24/11/93,22,m,268,Leo carried the wallet,Sensible,edin_semantics,sem_emo_sem_emo,1.04394147764833,2,2,2,1,86215.459585797,150,A
56,4,24/11/93,22,m,269,John carried the kettle,Sensible,edin_semantics,sem_emo_sem_emo,0.808726332499646,2,1,1,1,86217.0120497577,105,A
56,4,24/11/93,22,m,270,The shirt ironed Josh,Non-sensible,edin_semantics,sem_emo_sem_emo,1.65525236145186,1,1,1,1,86219.4113511662,55,A
56,4,24/11/93,22,m,271,The lever pulled Hugh,Non-sensible,edin_semantics,sem_emo_sem_emo,1.40694544045255,1,1,1,1,86221.5635919702,45,A
56,4,24/11/93,22,m,272,Phil solved the problem,Sensible,edin_semantics,sem_emo_sem_emo,1.09028771118028,1,1,1,1,86223.3983286658,109,A
56,4,24/11/93,22,m,273,Jane licked the plate,Sensible,edin_semantics,sem_emo_sem_emo,1.99626201255887,1,2,2,1,86226.1386810982,96,A
56,4,24/11/93,22,m,274,Ben got the radio,Sensible,edin_semantics,sem_emo_sem_emo,1.53810181438166,1,2,2,1,86228.4203194496,88,A
56,4,24/11/93,22,m,275,The pill swallowed Luke,Non-sensible,edin_semantics,sem_emo_sem_emo,1.42021104635205,2,2,2,1,86230.5843685094,22,A
56,4,24/11/93,22,m,276,The thread measured Amy,Non-sensible,edin_semantics,sem_emo_sem_emo,1.07908176683122,1,1,1,1,86232.4073367184,51,A
56,4,24/11/93,22,m,277,The cake iced Mary,Non-sensible,edin_semantics,sem_emo_sem_emo,0.79703000781592,2,2,2,1,86233.9480482285,44,A
56,4,24/11/93,22,m,278,Liam mixed the nuts,Sensible,edin_semantics,sem_emo_sem_emo,0.960519091153401,2,1,1,1,86235.6534338811,83,A
56,4,24/11/93,22,m,279,Luke watered the plants,Sensible,edin_semantics,sem_emo_sem_emo,0.797000180886243,2,1,1,1,86237.1941203751,129,A
56,4,24/11/93,22,m,280,The picture painted Ryan,Non-sensible,edin_semantics,sem_emo_sem_emo,0.949527387536364,2,1,1,1,86238.8877070726,35,A
56,4,24/11/93,22,m,281,Erin punched the monitor,Sensible,edin_semantics,sem_emo_sem_emo,1.20873139986361,1,1,1,1,86240.8400596795,125,A
56,4,24/11/93,22,m,282,The laptop fixed Jen,Non-sensible,edin_semantics,sem_emo_sem_emo,0.773765967023792,2,1,1,1,86242.3572306885,37,A
56,4,24/11/93,22,m,283,The folder carried Dan,Non-sensible,edin_semantics,sem_emo_sem_emo,0.984979095490417,2,2,2,1,86244.0861324675,30,A
56,4,24/11/93,22,m,284,The garlic crushed Erin,Non-sensible,edin_semantics,sem_emo_sem_emo,1.19684777491784,2,2,2,1,86246.0267127391,6,A
56,4,24/11/93,22,m,285,The dishes washed Mark,Non-sensible,edin_semantics,sem_emo_sem_emo,1.22011726793426,1,1,1,1,86247.9908216452,57,A
56,4,24/11/93,22,m,286,The fur stroked Rob,Non-sensible,edin_semantics,sem_emo_sem_emo,1.78505786423921,1,1,1,1,86250.5194750589,41,A
56,4,24/11/93,22,m,287,The lorry dented Lily,Non-sensible,edin_semantics,sem_emo_sem_emo,0.890693934677984,2,1,1,1,86252.1542286243,71,A
56,4,24/11/93,22,m,288,The jar labeled Liz,Non-sensible,edin_semantics,sem_emo_sem_emo,2.01978583625169,1,1,1,1,86254.9181128984,61,A
56,4,24/11/93,22,m,289,The number dialed Tom,Non-sensible,edin_semantics,sem_emo_sem_emo,0.914615450732526,2,1,1,1,86256.5764140208,63,A
56,4,24/11/93,22,m,290,The cheese grated Andy,Non-sensible,edin_semantics,sem_emo_sem_emo,0.877831473379047,2,1,1,1,86258.1994520184,65,A
56,4,24/11/93,22,m,291,The sheets counted Bill,Non-sensible,edin_semantics,sem_emo_sem_emo,1.21938987576868,1,2,2,1,86260.1635362291,48,A
56,4,24/11/93,22,m,292,The story wrote Ewan,Non-sensible,edin_semantics,sem_emo_sem_emo,1.79499055159977,1,2,2,1,86262.7040110481,74,A
56,4,24/11/93,22,m,293,Tim took the ticket,Sensible,edin_semantics,sem_emo_sem_emo,2.40718822523195,1,2,2,1,86265.8559478099,128,A
56,4,24/11/93,22,m,294,Owen swallowed the gum,Sensible,edin_semantics,sem_emo_sem_emo,1.23169043626694,1,1,1,1,86267.8317831884,97,A
56,4,24/11/93,22,m,295,Alex wrote the report,Sensible,edin_semantics,sem_emo_sem_emo,1.23174816581013,2,1,1,1,86269.8076512803,149,A
56,4,24/11/93,22,m,296,Eve typed the message,Sensible,edin_semantics,sem_emo_sem_emo,1.03233335087134,2,2,2,1,86271.5836154597,124,A
56,4,24/11/93,22,m,297,Joe entered the office,Sensible,edin_semantics,sem_emo_sem_emo,1.63147548996494,1,1,1,1,86273.9593119024,133,A
56,4,24/11/93,22,m,298,The hill climbed Luke,Non-sensible,edin_semantics,sem_emo_sem_emo,0.8673468275083,2,2,2,1,86275.5706109196,68,A
56,4,24/11/93,22,m,299,The papers filed Lara,Non-sensible,edin_semantics,sem_emo_sem_emo,0.878988629847299,2,2,2,1,86277.1936466722,24,A
56,4,24/11/93,22,m,300,The card posted Erin,Non-sensible,edin_semantics,sem_emo_sem_emo,0.773506825556979,2,2,2,1,86278.7108324343,36,A
