subject_column,AssignedList_column,subject_dob_column,subject_age_column,subject_gender_column,trialnum_column,Stim_column,Type_column,Experiment_column,OrderGroup_column,ReactionTime_column,StimSide_column,StimPosition_column,Response_column,Valid_column,TrialEndSecs_column,PairID_column,List_column
57,1,13/1/93,23,f,1,The dishes washed Mark,Non-sensible,edin_semantics,emo_sem_emo_sem,1.20241995800461,2,2,2,1,89944.8607047237,57,A
57,1,13/1/93,23,f,2,The potatoes mashed Will,Non-sensible,edin_semantics,emo_sem_emo_sem,0.691374373476719,1,1,1,1,89946.2955447552,28,A
57,1,13/1/93,23,f,3,Alex wrote the report,Sensible,edin_semantics,emo_sem_emo_sem,0.690794191643363,2,2,2,1,89947.7304271216,149,A
57,1,13/1/93,23,f,4,The money offered Matt,Non-sensible,edin_semantics,emo_sem_emo_sem,0.926583745676908,2,2,2,1,89949.4005095594,9,A
57,1,13/1/93,23,f,5,Amy lifted the crate,Sensible,edin_semantics,emo_sem_emo_sem,0.796246169004007,1,1,1,1,89950.941194129,144,A
57,1,13/1/93,23,f,6,Hugh dialed the hotline,Sensible,edin_semantics,emo_sem_emo_sem,0.819599049136741,2,1,1,1,89952.5054323493,138,A
57,1,13/1/93,23,f,7,Luke fixed the radio,Sensible,edin_semantics,emo_sem_emo_sem,0.914184724257211,1,1,1,1,89954.1637770896,112,A
57,1,13/1/93,23,f,8,Erin punched the monitor,Sensible,edin_semantics,emo_sem_emo_sem,0.879219868715154,1,2,2,1,89955.7867875053,125,A
57,1,13/1/93,23,f,9,Tom whisked the cream,Sensible,edin_semantics,emo_sem_emo_sem,0.938112975418335,1,2,2,1,89957.468600264,137,A
57,1,13/1/93,23,f,10,Jay sold the bed,Sensible,edin_semantics,emo_sem_emo_sem,0.57293357126764,1,2,2,1,89958.7858054617,113,A
57,1,13/1/93,23,f,11,Eve typed the message,Sensible,edin_semantics,emo_sem_emo_sem,0.749954137092573,2,1,1,1,89960.2794978685,124,A
57,1,13/1/93,23,f,12,Kate wore the dress,Sensible,edin_semantics,emo_sem_emo_sem,0.667746957333293,2,1,1,1,89961.6908791824,100,A
57,1,13/1/93,23,f,13,The fruits mixed Jack,Non-sensible,edin_semantics,emo_sem_emo_sem,0.737965957538108,2,1,1,1,89963.1727402415,8,A
57,1,13/1/93,23,f,14,The museum visited Mary,Non-sensible,edin_semantics,emo_sem_emo_sem,0.715067537137656,2,1,1,1,89964.63113681,16,A
57,1,13/1/93,23,f,15,Max searched the internet,Sensible,edin_semantics,emo_sem_emo_sem,0.86816466259188,2,2,2,1,89966.2424018309,85,A
57,1,13/1/93,23,f,16,The ball squeezed Josh,Non-sensible,edin_semantics,emo_sem_emo_sem,0.809329606141546,1,2,2,1,89967.7948237774,1,A
57,1,13/1/93,23,f,17,The pen described John,Non-sensible,edin_semantics,emo_sem_emo_sem,0.832432004230213,1,1,1,1,89969.3708269564,42,A
57,1,13/1/93,23,f,18,Eve ironed the trousers,Sensible,edin_semantics,emo_sem_emo_sem,0.820454729138874,1,1,1,1,89970.9350998144,130,A
57,1,13/1/93,23,f,19,The spoon licked Will,Non-sensible,edin_semantics,emo_sem_emo_sem,0.761524739675224,1,2,2,1,89972.4404721891,21,A
57,1,13/1/93,23,f,20,The coins polished Jon,Non-sensible,edin_semantics,emo_sem_emo_sem,0.84411293437006,2,2,2,1,89974.0282400061,29,A
57,1,13/1/93,23,f,21,The bike kicked Matt,Non-sensible,edin_semantics,emo_sem_emo_sem,0.950230725720758,2,2,2,1,89975.7218337595,39,A
57,1,13/1/93,23,f,22,The room searched Jen,Non-sensible,edin_semantics,emo_sem_emo_sem,0.91523828827485,2,1,1,1,89977.3801480314,10,A
57,1,13/1/93,23,f,23,The photo took Beth,Non-sensible,edin_semantics,emo_sem_emo_sem,0.808487396367127,1,2,2,1,89978.9325555454,53,A
57,1,13/1/93,23,f,24,The movie watched Ella,Non-sensible,edin_semantics,emo_sem_emo_sem,0.714027764071943,2,2,2,1,89980.3909774509,33,A
57,1,13/1/93,23,f,25,The handle pulled Tim,Non-sensible,edin_semantics,emo_sem_emo_sem,0.774010034670937,1,2,2,1,89981.9081500634,73,A
57,1,13/1/93,23,f,26,The jumper wore Joe,Non-sensible,edin_semantics,emo_sem_emo_sem,0.750815910767415,1,2,2,1,89983.4018318865,25,A
57,1,13/1/93,23,f,27,The fence jumped Jon,Non-sensible,edin_semantics,emo_sem_emo_sem,0.656061857836903,2,2,2,1,89984.8014514488,17,A
57,1,13/1/93,23,f,28,Fred stored the rice,Sensible,edin_semantics,emo_sem_emo_sem,0.891068214506959,2,2,2,1,89986.4361719801,127,A
57,1,13/1/93,23,f,29,The shelf dusted Jake,Non-sensible,edin_semantics,emo_sem_emo_sem,0.620155048702145,1,2,2,1,89987.8004780647,47,A
57,1,13/1/93,23,f,30,The tomato sliced Liz,Non-sensible,edin_semantics,emo_sem_emo_sem,0.713886647426989,1,2,2,1,89989.2588685396,3,A
57,1,13/1/93,23,f,31,Ian dented the bowl,Sensible,edin_semantics,emo_sem_emo_sem,0.820357230360969,1,1,1,1,89990.8230730843,146,A
57,1,13/1/93,23,f,32,Leo passed the salt,Sensible,edin_semantics,emo_sem_emo_sem,0.644029418981518,2,1,1,1,89992.2109017097,118,A
57,1,13/1/93,23,f,33,The gun carried Ryan,Non-sensible,edin_semantics,emo_sem_emo_sem,0.844024415739113,1,2,2,1,89993.7986406619,75,A
57,1,13/1/93,23,f,34,Lucy cut the ribbon,Sensible,edin_semantics,emo_sem_emo_sem,0.620717911690008,2,2,2,1,89995.1629178817,95,A
57,1,13/1/93,23,f,35,The lesson taught Eve,Non-sensible,edin_semantics,emo_sem_emo_sem,0.702949145401362,1,2,2,1,89996.6095058737,15,A
57,1,13/1/93,23,f,36,Ryan stroked the blanket,Sensible,edin_semantics,emo_sem_emo_sem,0.832492620247649,1,1,1,1,89998.1855090526,116,A
57,1,13/1/93,23,f,37,The jar labeled Liz,Non-sensible,edin_semantics,emo_sem_emo_sem,0.914045852638083,1,2,2,1,89999.843818193,61,A
57,1,13/1/93,23,f,38,The folder carried Dan,Non-sensible,edin_semantics,emo_sem_emo_sem,0.702019699892844,2,1,1,1,90001.2904526894,30,A
57,1,13/1/93,23,f,39,Fred lent the car,Sensible,edin_semantics,emo_sem_emo_sem,0.726074956037337,1,1,1,1,90002.7605776546,94,A
57,1,13/1/93,23,f,40,Alex dusted the house,Sensible,edin_semantics,emo_sem_emo_sem,0.644428394210991,2,1,1,1,90004.1483793395,122,A
57,1,13/1/93,23,f,41,Ian pushed the button,Sensible,edin_semantics,emo_sem_emo_sem,0.726032300313818,2,2,2,1,90005.6185152092,101,A
57,1,13/1/93,23,f,42,The bushes trimmed Jon,Non-sensible,edin_semantics,emo_sem_emo_sem,0.703089620612445,2,1,1,1,90007.0651352731,32,A
57,1,13/1/93,23,f,43,The lorry dented Lily,Non-sensible,edin_semantics,emo_sem_emo_sem,0.783733612828655,2,2,2,1,90008.5940805417,71,A
57,1,13/1/93,23,f,44,Erin described the church,Sensible,edin_semantics,emo_sem_emo_sem,0.655253644334152,2,2,2,1,90009.9936699564,117,A
57,1,13/1/93,23,f,45,Ian labeled the box,Sensible,edin_semantics,emo_sem_emo_sem,0.703605658520246,2,1,1,1,90011.4402528169,136,A
57,1,13/1/93,23,f,46,The box lifted Kate,Non-sensible,edin_semantics,emo_sem_emo_sem,0.79781384661328,1,2,2,1,90012.9809903053,69,A
57,1,13/1/93,23,f,47,Jane licked the plate,Sensible,edin_semantics,emo_sem_emo_sem,0.761340325887431,2,1,1,1,90014.4863835268,96,A
57,1,13/1/93,23,f,48,Tom grated the carrots,Sensible,edin_semantics,emo_sem_emo_sem,0.855357044347329,2,1,1,1,90016.0859188682,140,A
57,1,13/1/93,23,f,49,The parcel mailed Rob,Non-sensible,edin_semantics,emo_sem_emo_sem,0.726571750754374,2,1,1,1,90017.5560348532,14,A
57,1,13/1/93,23,f,50,The room tidied Sam,Non-sensible,edin_semantics,emo_sem_emo_sem,0.537798734309035,2,1,1,1,90018.838026317,2,A
57,1,13/1/93,23,f,51,Tom offered the sweets,Sensible,edin_semantics,emo_sem_emo_sem,0.760696641547838,2,1,1,1,90020.3434314051,84,A
57,1,13/1/93,23,f,52,The flour weighed Jen,Non-sensible,edin_semantics,emo_sem_emo_sem,0.714840146916686,2,1,1,1,90021.8018032783,64,A
57,1,13/1/93,23,f,53,The bill paid Mike,Non-sensible,edin_semantics,emo_sem_emo_sem,0.9265385241888,2,2,2,1,90023.4719351069,59,A
57,1,13/1/93,23,f,54,The table wiped Beth,Non-sensible,edin_semantics,emo_sem_emo_sem,0.65659489389509,2,1,1,1,90024.8718801997,40,A
57,1,13/1/93,23,f,55,Tim took the ticket,Sensible,edin_semantics,emo_sem_emo_sem,0.771943958723568,1,1,1,1,90026.3885759022,128,A
57,1,13/1/93,23,f,56,The scarf knitted Tom,Non-sensible,edin_semantics,emo_sem_emo_sem,0.820377114985604,2,1,1,1,90027.9528404215,66,A
57,1,13/1/93,23,f,57,The lever pulled Hugh,Non-sensible,edin_semantics,emo_sem_emo_sem,0.808334092376754,2,2,2,1,90029.5053281154,45,A
57,1,13/1/93,23,f,58,Lucy counted the shoes,Sensible,edin_semantics,emo_sem_emo_sem,1.29126860013639,1,2,2,1,90031.5399716099,123,A
57,1,13/1/93,23,f,59,Adam chewed the fat,Sensible,edin_semantics,emo_sem_emo_sem,0.820648123073624,1,1,1,1,90033.104235167,106,A
57,1,13/1/93,23,f,60,Joe iced the donut,Sensible,edin_semantics,emo_sem_emo_sem,0.974347880750429,1,2,2,1,90034.8213681387,119,A
57,1,13/1/93,23,f,61,The mirror kissed Max,Non-sensible,edin_semantics,emo_sem_emo_sem,0.773682579922024,2,2,2,1,90036.3385183009,23,A
57,1,13/1/93,23,f,62,The dish served Kate,Non-sensible,edin_semantics,emo_sem_emo_sem,0.750333548436174,1,1,1,1,90037.8321593925,70,A
57,1,13/1/93,23,f,63,Leo carried the wallet,Sensible,edin_semantics,emo_sem_emo_sem,0.820700400392525,2,1,1,1,90039.3963851048,150,A
57,1,13/1/93,23,f,64,Tim sniffed the perfume,Sensible,edin_semantics,emo_sem_emo_sem,0.820471406565048,1,2,2,1,90040.9606483412,93,A
57,1,13/1/93,23,f,65,Jay painted the portrait,Sensible,edin_semantics,emo_sem_emo_sem,0.737997708783951,2,1,1,1,90042.442519984,110,A
57,1,13/1/93,23,f,66,Ella mashed the turnip,Sensible,edin_semantics,emo_sem_emo_sem,0.807648073052405,1,2,2,1,90043.9950067159,103,A
57,1,13/1/93,23,f,67,The teeth brushed Carl,Non-sensible,edin_semantics,emo_sem_emo_sem,1.12661915311764,1,1,1,1,90045.8650039705,72,A
57,1,13/1/93,23,f,68,Ian filed the report,Sensible,edin_semantics,emo_sem_emo_sem,0.854805727285566,2,2,2,1,90047.4645104471,99,A
57,1,13/1/93,23,f,69,Liz weighed the sugar,Sensible,edin_semantics,emo_sem_emo_sem,1.18491892849852,1,2,2,1,90049.3933382681,139,A
57,1,13/1/93,23,f,70,Hugh kissed the rose,Sensible,edin_semantics,emo_sem_emo_sem,0.714131677217665,2,1,1,1,90050.8517043683,98,A
57,1,13/1/93,23,f,71,The plans cancelled Ian,Non-sensible,edin_semantics,emo_sem_emo_sem,1.02065017569112,2,2,2,1,90052.6158811387,7,A
57,1,13/1/93,23,f,72,Josh scrubbed the pot,Sensible,edin_semantics,emo_sem_emo_sem,0.760667456066585,2,2,2,1,90054.1212875098,131,A
57,1,13/1/93,23,f,73,The paper cut Jon,Non-sensible,edin_semantics,emo_sem_emo_sem,0.856192839739379,1,1,1,1,90055.7207782711,20,A
57,1,13/1/93,23,f,74,Ryan knitted the socks,Sensible,edin_semantics,emo_sem_emo_sem,0.87915380045888,1,2,2,1,90057.3438643766,141,A
57,1,13/1/93,23,f,75,Lucy wiped the desk,Sensible,edin_semantics,emo_sem_emo_sem,0.808074950909941,2,2,2,1,90058.8962850402,115,A
57,1,13/1/93,23,f,76,Anna polished the trophy,Sensible,edin_semantics,emo_sem_emo_sem,0.934131241039722,1,1,1,1,90060.5663886455,104,A
57,1,13/1/93,23,f,77,The puzzle solved Joe,Non-sensible,edin_semantics,emo_sem_emo_sem,0.679193441406824,2,1,1,1,90061.9895070154,34,A
57,1,13/1/93,23,f,78,The juice drank Matt,Non-sensible,edin_semantics,emo_sem_emo_sem,1.56022858331562,1,1,1,1,90064.2946505888,60,A
57,1,13/1/93,23,f,79,John carried the kettle,Sensible,edin_semantics,emo_sem_emo_sem,0.984632076841081,2,2,2,1,90066.0235116363,105,A
57,1,13/1/93,23,f,80,The story wrote Ewan,Non-sensible,edin_semantics,emo_sem_emo_sem,1.38402938048239,1,1,1,1,90068.1523164938,74,A
57,1,13/1/93,23,f,81,Erin tidied the garage,Sensible,edin_semantics,emo_sem_emo_sem,0.655098416027613,2,2,2,1,90069.5518683844,77,A
57,1,13/1/93,23,f,82,Luke watered the plants,Sensible,edin_semantics,emo_sem_emo_sem,0.914683764014626,1,2,2,1,90071.2101756004,129,A
57,1,13/1/93,23,f,83,The ham ate Tim,Non-sensible,edin_semantics,emo_sem_emo_sem,0.726759692464839,2,2,2,1,90072.6802752288,67,A
57,1,13/1/93,23,f,84,The floor cleaned Tim,Non-sensible,edin_semantics,emo_sem_emo_sem,0.738075643661432,2,2,2,1,90074.1621904895,5,A
57,1,13/1/93,23,f,85,Jack drank the beer,Sensible,edin_semantics,emo_sem_emo_sem,0.820357871809392,1,2,2,1,90075.7264174846,135,A
57,1,13/1/93,23,f,86,Jack posted the gift,Sensible,edin_semantics,emo_sem_emo_sem,1.46725227934076,2,2,2,1,90077.9374596695,111,A
57,1,13/1/93,23,f,87,Fred chopped the carrots,Sensible,edin_semantics,emo_sem_emo_sem,1.02054401749047,1,1,1,1,90079.7016544002,102,A
57,1,13/1/93,23,f,88,The cheese grated Andy,Non-sensible,edin_semantics,emo_sem_emo_sem,0.890126581623917,1,2,2,1,90081.336452225,65,A
57,1,13/1/93,23,f,89,Ben got the radio,Sensible,edin_semantics,emo_sem_emo_sem,0.86741225431615,1,1,1,1,90082.947740017,88,A
57,1,13/1/93,23,f,90,The number dialed Tom,Non-sensible,edin_semantics,emo_sem_emo_sem,0.985820343121304,1,2,2,1,90084.6766052339,63,A
57,1,13/1/93,23,f,91,Jay squeezed the lemon,Sensible,edin_semantics,emo_sem_emo_sem,0.715190693488694,2,1,1,1,90086.1350043682,76,A
57,1,13/1/93,23,f,92,Phil solved the problem,Sensible,edin_semantics,emo_sem_emo_sem,0.784020336199319,1,2,2,1,90087.663923017,109,A
57,1,13/1/93,23,f,93,The laptop fixed Jen,Non-sensible,edin_semantics,emo_sem_emo_sem,0.831935850932496,1,2,2,1,90089.2398700701,37,A
57,1,13/1/93,23,f,94,Tom visited the hospital,Sensible,edin_semantics,emo_sem_emo_sem,0.868068767420482,2,2,2,1,90090.8512111015,91,A
57,1,13/1/93,23,f,95,The pill swallowed Luke,Non-sensible,edin_semantics,emo_sem_emo_sem,0.844553282440756,2,1,1,1,90092.4389436393,22,A
57,1,13/1/93,23,f,96,Rose built the shed,Sensible,edin_semantics,emo_sem_emo_sem,1.03247831614863,2,2,2,1,90094.214876709,121,A
57,1,13/1/93,23,f,97,Kate hugged the pillow,Sensible,edin_semantics,emo_sem_emo_sem,0.867822775457171,1,1,1,1,90095.8261212038,86,A
57,1,13/1/93,23,f,98,The sofa sold Carl,Non-sensible,edin_semantics,emo_sem_emo_sem,0.632158943524701,1,1,2,0,90097.2021582508,38,A
57,1,13/1/93,23,f,99,The room entered Ryan,Non-sensible,edin_semantics,emo_sem_emo_sem,0.973962375734118,1,1,1,1,90098.9192883359,58,A
57,1,13/1/93,23,f,100,Rob measured the curtains,Sensible,edin_semantics,emo_sem_emo_sem,0.997126993432175,1,1,1,1,90100.6599893906,126,A
57,1,13/1/93,23,f,101,Owen swallowed the gum,Sensible,edin_semantics,emo_sem_emo_sem,0.85500585634145,1,2,2,1,90102.2594779069,97,A
57,1,13/1/93,23,f,102,The bucket lent Max,Non-sensible,edin_semantics,emo_sem_emo_sem,0.820451842664625,1,2,2,1,90103.8236811688,19,A
57,1,13/1/93,23,f,103,Bill trimmed the hair,Sensible,edin_semantics,emo_sem_emo_sem,1.23251564790553,2,2,2,1,90105.79951334,107,A
57,1,13/1/93,23,f,104,The lolly sucked Leah,Non-sensible,edin_semantics,emo_sem_emo_sem,0.902817457928904,1,1,1,1,90107.4460976117,12,A
57,1,13/1/93,23,f,105,Phil cancelled the party,Sensible,edin_semantics,emo_sem_emo_sem,1.00863505568122,1,1,1,1,90109.1984962739,82,A
57,1,13/1/93,23,f,106,The eggs whisked Dan,Non-sensible,edin_semantics,emo_sem_emo_sem,0.91457054996863,2,1,1,1,90110.8568371655,62,A
57,1,13/1/93,23,f,107,The bowl scrubbed Liz,Non-sensible,edin_semantics,emo_sem_emo_sem,0.77339232864324,2,1,1,1,90112.373978989,56,A
57,1,13/1/93,23,f,108,Adam watched the opera,Sensible,edin_semantics,emo_sem_emo_sem,0.643693946229178,1,1,1,1,90113.7618063315,108,A
57,1,13/1/93,23,f,109,The herbs chopped Phil,Non-sensible,edin_semantics,emo_sem_emo_sem,0.995847001337097,1,2,2,1,90115.5024512602,27,A
57,1,13/1/93,23,f,110,The tree hugged Amy,Non-sensible,edin_semantics,emo_sem_emo_sem,0.783787173015298,2,2,2,1,90117.0313577217,11,A
57,1,13/1/93,23,f,111,Andy pulled the rope,Sensible,edin_semantics,emo_sem_emo_sem,0.832171900605317,2,1,1,1,90118.6073734088,148,A
57,1,13/1/93,23,f,112,Mike ate the steak,Sensible,edin_semantics,emo_sem_emo_sem,0.796844631855492,2,1,1,1,90120.1480554127,142,A
57,1,13/1/93,23,f,113,The wall punched Jane,Non-sensible,edin_semantics,emo_sem_emo_sem,0.773407723172568,1,1,1,1,90121.665415967,50,A
57,1,13/1/93,23,f,114,The book read Sean,Non-sensible,edin_semantics,emo_sem_emo_sem,0.714911025963374,2,1,1,1,90123.1236406298,4,A
57,1,13/1/93,23,f,115,Liam sliced the onion,Sensible,edin_semantics,emo_sem_emo_sem,0.690549803257454,1,1,1,1,90124.5585027909,78,A
57,1,13/1/93,23,f,116,The wine stored Leo,Non-sensible,edin_semantics,emo_sem_emo_sem,0.737575962455594,1,1,1,1,90126.0404026571,52,A
57,1,13/1/93,23,f,117,The hill climbed Luke,Non-sensible,edin_semantics,emo_sem_emo_sem,0.725357506176806,1,1,1,1,90127.5105237737,68,A
57,1,13/1/93,23,f,118,Sara jumped the hedge,Sensible,edin_semantics,emo_sem_emo_sem,0.631039952699211,1,1,1,1,90128.8865566513,92,A
57,1,13/1/93,23,f,119,Fred served the dessert,Sensible,edin_semantics,emo_sem_emo_sem,0.737510856357403,1,2,1,0,90130.3684622904,145,A
57,1,13/1/93,23,f,120,Jack cleaned the bath,Sensible,edin_semantics,emo_sem_emo_sem,0.902819061520859,2,1,1,1,90132.0150083964,80,A
57,1,13/1/93,23,f,121,The toffee chewed Ben,Non-sensible,edin_semantics,emo_sem_emo_sem,1.00854044339212,1,2,2,1,90133.7674054551,31,A
57,1,13/1/93,23,f,122,Josh crushed the ice,Sensible,edin_semantics,emo_sem_emo_sem,0.867394614731893,2,2,2,1,90135.3786823426,81,A
57,1,13/1/93,23,f,123,Zoe paid the debt,Sensible,edin_semantics,emo_sem_emo_sem,0.797288828558521,1,1,1,1,90136.9193794203,134,A
57,1,13/1/93,23,f,124,The sheets counted Bill,Non-sensible,edin_semantics,emo_sem_emo_sem,0.820554793666815,2,1,1,1,90138.4836134713,48,A
57,1,13/1/93,23,f,125,Luke read the poster,Sensible,edin_semantics,emo_sem_emo_sem,0.914770679039066,2,2,2,1,90140.1419457035,79,A
57,1,13/1/93,23,f,126,Joe entered the office,Sensible,edin_semantics,emo_sem_emo_sem,0.831839635051438,2,2,2,1,90141.7180903198,133,A
57,1,13/1/93,23,f,127,The cake iced Mary,Non-sensible,edin_semantics,emo_sem_emo_sem,0.70165183446079,2,1,1,1,90143.1645760022,44,A
57,1,13/1/93,23,f,128,Dan brushed the hair,Sensible,edin_semantics,emo_sem_emo_sem,0.748682483710581,2,2,2,1,90144.6582110002,147,A
57,1,13/1/93,23,f,129,The house built Kate,Non-sensible,edin_semantics,emo_sem_emo_sem,1.04354538887856,2,1,2,0,90146.4458715043,46,A
57,1,13/1/93,23,f,130,The letter typed Phil,Non-sensible,edin_semantics,emo_sem_emo_sem,0.878775992721785,2,2,2,1,90148.06892201,49,A
57,1,13/1/93,23,f,131,Emma pulled the rope,Sensible,edin_semantics,emo_sem_emo_sem,0.76154558644339,1,1,1,1,90149.5743216459,120,A
57,1,13/1/93,23,f,132,Ben climbed the stairs,Sensible,edin_semantics,emo_sem_emo_sem,0.726416522447835,2,2,2,1,90151.0444806074,143,A
57,1,13/1/93,23,f,133,The kettle got Lily,Non-sensible,edin_semantics,emo_sem_emo_sem,1.29086128617928,1,2,2,1,90153.0791263469,13,A
57,1,13/1/93,23,f,134,The garlic crushed Erin,Non-sensible,edin_semantics,emo_sem_emo_sem,0.855786167245242,1,1,1,1,90154.6786475766,6,A
57,1,13/1/93,23,f,135,The thread measured Amy,Non-sensible,edin_semantics,emo_sem_emo_sem,0.820534267622861,1,2,2,1,90156.2429181896,51,A
57,1,13/1/93,23,f,136,Liam mixed the nuts,Sensible,edin_semantics,emo_sem_emo_sem,0.820455370572745,1,2,2,1,90157.8070759092,83,A
57,1,13/1/93,23,f,137,Ian mailed the invite,Sensible,edin_semantics,emo_sem_emo_sem,0.761569961134228,2,2,2,1,90159.3125172387,89,A
57,1,13/1/93,23,f,138,Josh taught the rules,Sensible,edin_semantics,emo_sem_emo_sem,0.714662468220922,1,1,1,1,90160.7709000163,90,A
57,1,13/1/93,23,f,139,The towels passed Phil,Non-sensible,edin_semantics,emo_sem_emo_sem,0.761470538054709,1,2,2,1,90162.2763323656,43,A
57,1,13/1/93,23,f,140,Beth washed the pan,Sensible,edin_semantics,emo_sem_emo_sem,0.88999636945664,2,1,1,1,90163.9111090229,132,A
57,1,13/1/93,23,f,141,The papers filed Lara,Non-sensible,edin_semantics,emo_sem_emo_sem,0.819842796059675,2,1,1,1,90165.4753453188,24,A
57,1,13/1/93,23,f,142,The fur stroked Rob,Non-sensible,edin_semantics,emo_sem_emo_sem,0.725708373487578,1,2,2,1,90166.9454786228,41,A
57,1,13/1/93,23,f,143,The card posted Erin,Non-sensible,edin_semantics,emo_sem_emo_sem,0.867414820080739,1,1,1,1,90168.5567288906,36,A
57,1,13/1/93,23,f,144,The milk sniffed Phil,Non-sensible,edin_semantics,emo_sem_emo_sem,0.785017132846406,1,1,1,1,90170.0856744798,18,A
57,1,13/1/93,23,f,145,The picture painted Ryan,Non-sensible,edin_semantics,emo_sem_emo_sem,0.808898879666231,2,2,2,1,90171.6381451757,35,A
57,1,13/1/93,23,f,146,The shirt ironed Josh,Non-sensible,edin_semantics,emo_sem_emo_sem,0.644338913421961,2,2,2,1,90173.0259760461,55,A
57,1,13/1/93,23,f,147,The garden watered Jeff,Non-sensible,edin_semantics,emo_sem_emo_sem,0.773690277186688,1,1,1,1,90174.5431736748,54,A
57,1,13/1/93,23,f,148,Max kicked the door,Sensible,edin_semantics,emo_sem_emo_sem,0.77372780139558,2,1,1,1,90176.0603212713,114,A
57,1,13/1/93,23,f,149,Sam sucked the candy,Sensible,edin_semantics,emo_sem_emo_sem,0.926674509319128,2,2,2,1,90177.7304354603,87,A
57,1,13/1/93,23,f,150,The trolley pushed Matt,Non-sensible,edin_semantics,emo_sem_emo_sem,0.726441538587096,2,1,1,1,90179.2005645949,26,A
57,1,13/1/93,23,f,151,Matt pushed the trolley,Sensible,edin_semantics,emo_sem_emo_sem,1.29661499659414,1,2,2,1,90191.3615045985,26,B
57,1,13/1/93,23,f,152,The report wrote Alex,Non-sensible,edin_semantics,emo_sem_emo_sem,1.17308886372484,2,1,1,1,90193.2785623293,149,B
57,1,13/1/93,23,f,153,The nuts mixed Liam,Non-sensible,edin_semantics,emo_sem_emo_sem,0.937903545491281,1,1,1,1,90194.960401387,83,B
57,1,13/1/93,23,f,154,The ice crushed Josh,Non-sensible,edin_semantics,emo_sem_emo_sem,0.925091437165975,2,1,1,1,90196.6304729204,81,B
57,1,13/1/93,23,f,155,The problem solved Phil,Non-sensible,edin_semantics,emo_sem_emo_sem,0.866348427254707,2,1,1,1,90198.2417687304,109,B
57,1,13/1/93,23,f,156,Will mashed the potatoes,Sensible,edin_semantics,emo_sem_emo_sem,1.30175260455871,2,2,2,1,90200.2881704484,28,B
57,1,13/1/93,23,f,157,Joe solved the puzzle,Sensible,edin_semantics,emo_sem_emo_sem,1.30220578142325,2,2,2,1,90202.3346010312,34,B
57,1,13/1/93,23,f,158,The monitor punched Erin,Non-sensible,edin_semantics,emo_sem_emo_sem,0.820224131719442,2,1,1,1,90203.8988520803,125,B
57,1,13/1/93,23,f,159,The rules taught Josh,Non-sensible,edin_semantics,emo_sem_emo_sem,0.831662277079886,2,2,2,1,90205.4748116414,90,B
57,1,13/1/93,23,f,160,Tom dialed the number,Sensible,edin_semantics,emo_sem_emo_sem,0.773207914840896,2,1,1,1,90206.991996762,63,B
57,1,13/1/93,23,f,161,Tim ate the ham,Sensible,edin_semantics,emo_sem_emo_sem,0.749883258045884,2,1,1,1,90208.48567634,67,B
57,1,13/1/93,23,f,162,The carrots grated Tom,Non-sensible,edin_semantics,emo_sem_emo_sem,0.70225542881235,1,2,2,1,90209.9322768401,140,B
57,1,13/1/93,23,f,163,The sugar weighed Liz,Non-sensible,edin_semantics,emo_sem_emo_sem,1.14974239798903,1,1,1,1,90211.8258085022,139,B
57,1,13/1/93,23,f,164,Ryan carried the gun,Sensible,edin_semantics,emo_sem_emo_sem,1.42015620329767,1,1,1,1,90213.9898848232,75,B
57,1,13/1/93,23,f,165,The poster read Luke,Non-sensible,edin_semantics,emo_sem_emo_sem,0.785299045412103,1,1,1,1,90215.5188073206,79,B
57,1,13/1/93,23,f,166,The hedge jumped Sara,Non-sensible,edin_semantics,emo_sem_emo_sem,1.47922249861585,2,2,2,1,90217.7416426875,92,B
57,1,13/1/93,23,f,167,Matt kicked the bike,Sensible,edin_semantics,emo_sem_emo_sem,0.879422884245287,2,1,1,1,90219.3646890238,39,B
57,1,13/1/93,23,f,168,The hair brushed Dan,Non-sensible,edin_semantics,emo_sem_emo_sem,0.725321264879312,2,1,1,1,90220.8348107818,147,B
57,1,13/1/93,23,f,169,The steak ate Mike,Non-sensible,edin_semantics,emo_sem_emo_sem,0.914835143688833,1,2,2,1,90222.4931160736,142,B
57,1,13/1/93,23,f,170,The door kicked Max,Non-sensible,edin_semantics,emo_sem_emo_sem,1.07957407148206,1,2,2,1,90224.3160894141,114,B
57,1,13/1/93,23,f,171,The rice stored Fred,Non-sensible,edin_semantics,emo_sem_emo_sem,0.890976809401764,1,1,1,1,90225.9508898046,127,B
57,1,13/1/93,23,f,172,The dessert served Fred,Non-sensible,edin_semantics,emo_sem_emo_sem,0.761690872444888,2,1,1,1,90227.4563285683,145,B
57,1,13/1/93,23,f,173,Andy grated the cheese,Sensible,edin_semantics,emo_sem_emo_sem,0.796948224306107,2,1,1,1,90228.9969842732,65,B
57,1,13/1/93,23,f,174,The onion sliced Liam,Non-sensible,edin_semantics,emo_sem_emo_sem,0.773452303212252,2,2,2,1,90230.5142255198,78,B
57,1,13/1/93,23,f,175,The cream whisked Tom,Non-sensible,edin_semantics,emo_sem_emo_sem,0.785483779924107,2,1,1,1,90232.0431502623,137,B
57,1,13/1/93,23,f,176,The crate lifted Amy,Non-sensible,edin_semantics,emo_sem_emo_sem,1.60850779413886,1,2,2,1,90234.3953754793,144,B
57,1,13/1/93,23,f,177,Eve taught the lesson,Sensible,edin_semantics,emo_sem_emo_sem,1.03184617772058,1,1,1,1,90236.1713021346,15,B
57,1,13/1/93,23,f,178,The lemon squeezed Jay,Non-sensible,edin_semantics,emo_sem_emo_sem,0.879385039326735,1,2,2,1,90237.7943507159,76,B
57,1,13/1/93,23,f,179,Jon trimmed the bushes,Sensible,edin_semantics,emo_sem_emo_sem,0.761495233455207,2,2,2,1,90239.2997266186,32,B
57,1,13/1/93,23,f,180,The radio fixed Luke,Non-sensible,edin_semantics,emo_sem_emo_sem,0.855666218078113,2,2,2,1,90240.8993033328,112,B
57,1,13/1/93,23,f,181,Luke swallowed the pill,Sensible,edin_semantics,emo_sem_emo_sem,1.00867514564015,2,2,2,1,90242.6516615843,22,B
57,1,13/1/93,23,f,182,The report filed Ian,Non-sensible,edin_semantics,emo_sem_emo_sem,0.703154405986425,2,1,1,1,90244.0982498971,99,B
57,1,13/1/93,23,f,183,Sam tidied the room,Sensible,edin_semantics,emo_sem_emo_sem,0.820515986590181,2,2,2,1,90245.6625166614,2,B
57,1,13/1/93,23,f,184,Jon polished the coins,Sensible,edin_semantics,emo_sem_emo_sem,0.843957385339309,1,1,1,1,90247.2502267488,29,B
57,1,13/1/93,23,f,185,Jen searched the room,Sensible,edin_semantics,emo_sem_emo_sem,0.726292724662926,1,2,2,1,90248.7203735229,10,B
57,1,13/1/93,23,f,186,The gum swallowed Owen,Non-sensible,edin_semantics,emo_sem_emo_sem,1.07925687974785,2,1,1,1,90250.5433606544,97,B
57,1,13/1/93,23,f,187,Mike paid the bill,Sensible,edin_semantics,emo_sem_emo_sem,0.867827265537926,2,1,1,1,90252.1545932826,59,B
57,1,13/1/93,23,f,188,Amy measured the thread,Sensible,edin_semantics,emo_sem_emo_sem,0.784970949214767,2,1,1,1,90253.683547852,51,B
57,1,13/1/93,23,f,189,Mary iced the cake,Sensible,edin_semantics,emo_sem_emo_sem,0.749950288460241,1,2,2,1,90255.1772315994,44,B
57,1,13/1/93,23,f,190,The wallet carried Leo,Non-sensible,edin_semantics,emo_sem_emo_sem,1.89082991979376,1,2,2,1,90257.8116862541,150,B
57,1,13/1/93,23,f,191,Jane punched the wall,Sensible,edin_semantics,emo_sem_emo_sem,0.702831441303715,1,2,2,1,90259.2583005451,50,B
57,1,13/1/93,23,f,192,Rob stroked the fur,Sensible,edin_semantics,emo_sem_emo_sem,0.750030468363548,1,1,1,1,90260.751999687,41,B
57,1,13/1/93,23,f,193,The pillow hugged Kate,Non-sensible,edin_semantics,emo_sem_emo_sem,1.93783106285264,2,2,2,1,90263.4335254016,86,B
57,1,13/1/93,23,f,194,The trousers ironed Eve,Non-sensible,edin_semantics,emo_sem_emo_sem,0.808932875937899,1,2,2,1,90264.9859649877,130,B
57,1,13/1/93,23,f,195,The radio got Ben,Non-sensible,edin_semantics,emo_sem_emo_sem,0.679585681544268,1,2,2,1,90266.4090791882,88,B
57,1,13/1/93,23,f,196,Joe wore the jumper,Sensible,edin_semantics,emo_sem_emo_sem,0.785214054703829,2,1,1,1,90267.9379965542,25,B
57,1,13/1/93,23,f,197,The kettle carried John,Non-sensible,edin_semantics,emo_sem_emo_sem,0.632439893932315,1,1,1,1,90269.3140435435,105,B
57,1,13/1/93,23,f,198,Beth took the photo,Sensible,edin_semantics,emo_sem_emo_sem,0.76189068077656,2,1,1,1,90270.8194685162,53,B
57,1,13/1/93,23,f,199,The portrait painted Jay,Non-sensible,edin_semantics,emo_sem_emo_sem,0.950084477546625,2,2,2,1,90272.5130680426,110,B
57,1,13/1/93,23,f,200,The car lent Fred,Non-sensible,edin_semantics,emo_sem_emo_sem,0.820834461206687,2,2,2,1,90274.0772818882,94,B
57,1,13/1/93,23,f,201,The pot scrubbed Josh,Non-sensible,edin_semantics,emo_sem_emo_sem,0.820453446271131,2,1,1,1,90275.6415319751,131,B
57,1,13/1/93,23,f,202,Ian cancelled the plans,Sensible,edin_semantics,emo_sem_emo_sem,0.831965998586384,1,1,1,1,90277.217514628,7,B
57,1,13/1/93,23,f,203,The turnip mashed Ella,Non-sensible,edin_semantics,emo_sem_emo_sem,0.762125768276746,2,1,1,1,90278.7230345338,103,B
57,1,13/1/93,23,f,204,The socks knitted Ryan,Non-sensible,edin_semantics,emo_sem_emo_sem,0.585335479161586,2,1,1,1,90280.0519508093,141,B
57,1,13/1/93,23,f,205,Max lent the bucket,Sensible,edin_semantics,emo_sem_emo_sem,0.750093970855232,1,1,1,1,90281.5455848451,19,B
57,1,13/1/93,23,f,206,The desk wiped Lucy,Non-sensible,edin_semantics,emo_sem_emo_sem,0.750186979552382,1,1,1,1,90283.0392714789,115,B
57,1,13/1/93,23,f,207,The debt paid Zoe,Non-sensible,edin_semantics,emo_sem_emo_sem,0.762010309204925,1,2,2,1,90284.5446826607,134,B
57,1,13/1/93,23,f,208,Ryan entered the room,Sensible,edin_semantics,emo_sem_emo_sem,0.832425910542952,2,2,2,1,90286.1206880847,58,B
57,1,13/1/93,23,f,209,Jon cut the paper,Sensible,edin_semantics,emo_sem_emo_sem,0.797150598402368,1,2,2,1,90287.6613697679,20,B
57,1,13/1/93,23,f,210,Ella watched the movie,Sensible,edin_semantics,emo_sem_emo_sem,0.797140976806986,2,1,1,1,90289.2020639592,33,B
57,1,13/1/93,23,f,211,Jeff watered the garden,Sensible,edin_semantics,emo_sem_emo_sem,0.632132644517696,2,2,2,1,90290.5781093449,54,B
57,1,13/1/93,23,f,212,The bowl dented Ian,Non-sensible,edin_semantics,emo_sem_emo_sem,0.820380642893724,1,2,2,1,90292.1423652047,146,B
57,1,13/1/93,23,f,213,Dan whisked the eggs,Sensible,edin_semantics,emo_sem_emo_sem,0.867669150757138,2,2,2,1,90293.7536395265,62,B
57,1,13/1/93,23,f,214,Tim pulled the handle,Sensible,edin_semantics,emo_sem_emo_sem,0.761720057926141,1,1,1,1,90295.2590301823,73,B
57,1,13/1/93,23,f,215,The message typed Eve,Non-sensible,edin_semantics,emo_sem_emo_sem,0.63215220841812,1,2,2,1,90296.6350925661,124,B
57,1,13/1/93,23,f,216,Josh ironed the shirt,Sensible,edin_semantics,emo_sem_emo_sem,0.797082605829928,1,1,1,1,90298.1757729664,55,B
57,1,13/1/93,23,f,217,Jen weighed the flour,Sensible,edin_semantics,emo_sem_emo_sem,0.644182722957339,2,2,2,1,90299.5635900459,64,B
57,1,13/1/93,23,f,218,Jake dusted the shelf,Sensible,edin_semantics,emo_sem_emo_sem,0.844096898377757,1,1,1,1,90301.1513536935,47,B
57,1,13/1/93,23,f,219,The gift posted Jack,Non-sensible,edin_semantics,emo_sem_emo_sem,0.855330103906454,1,1,1,1,90302.7508553593,111,B
57,1,13/1/93,23,f,220,Leah sucked the lolly,Sensible,edin_semantics,emo_sem_emo_sem,0.996904093277408,2,2,2,1,90304.4915208141,12,B
57,1,13/1/93,23,f,221,The trophy polished Anna,Non-sensible,edin_semantics,emo_sem_emo_sem,0.773519012902398,2,2,2,1,90306.0086825222,104,B
57,1,13/1/93,23,f,222,Lara filed the papers,Sensible,edin_semantics,emo_sem_emo_sem,0.632205447880551,1,2,2,1,90307.3846907044,24,B
57,1,13/1/93,23,f,223,Carl sold the sofa,Sensible,edin_semantics,emo_sem_emo_sem,0.608917673831456,2,2,2,1,90308.7372106628,38,B
57,1,13/1/93,23,f,224,Dan carried the folder,Sensible,edin_semantics,emo_sem_emo_sem,2.37321599698043,2,2,2,1,90311.8539699319,30,B
57,1,13/1/93,23,f,225,Kate built the house,Sensible,edin_semantics,emo_sem_emo_sem,0.726547696787748,2,2,2,1,90313.3240576936,46,B
57,1,13/1/93,23,f,226,Carl brushed the teeth,Sensible,edin_semantics,emo_sem_emo_sem,1.12636899179779,1,2,2,1,90315.1940979247,72,B
57,1,13/1/93,23,f,227,The rope pulled Emma,Non-sensible,edin_semantics,emo_sem_emo_sem,0.926089837419568,1,2,2,1,90316.8641755517,120,B
57,1,13/1/93,23,f,228,Jack mixed the fruits,Sensible,edin_semantics,emo_sem_emo_sem,0.644398246557103,2,2,2,1,90318.2520073842,8,B
57,1,13/1/93,23,f,229,Will licked the spoon,Sensible,edin_semantics,emo_sem_emo_sem,0.972907528834185,1,1,1,1,90319.9691393937,21,B
57,1,13/1/93,23,f,230,Erin crushed the garlic,Sensible,edin_semantics,emo_sem_emo_sem,1.12609573866939,1,2,2,1,90321.8391212538,6,B
57,1,13/1/93,23,f,231,The bed sold Jay,Non-sensible,edin_semantics,emo_sem_emo_sem,1.39657914012787,2,1,1,1,90323.979620191,113,B
57,1,13/1/93,23,f,232,Matt offered the money,Sensible,edin_semantics,emo_sem_emo_sem,0.855658520813449,2,1,1,1,90325.579159381,9,B
57,1,13/1/93,23,f,233,Phil passed the towels,Sensible,edin_semantics,emo_sem_emo_sem,0.620410662260838,2,1,1,1,90326.9434475053,43,B
57,1,13/1/93,23,f,234,The internet searched Max,Non-sensible,edin_semantics,emo_sem_emo_sem,0.914130522636697,1,1,1,1,90328.6017592114,85,B
57,1,13/1/93,23,f,235,Mary visited the museum,Sensible,edin_semantics,emo_sem_emo_sem,0.620398474900867,1,2,1,0,90329.9660329033,16,B
57,1,13/1/93,23,f,236,The office entered Joe,Non-sensible,edin_semantics,emo_sem_emo_sem,0.738052231128677,2,1,1,1,90331.4479828017,133,B
57,1,13/1/93,23,f,237,Liz sliced the tomato,Sensible,edin_semantics,emo_sem_emo_sem,0.856210158599424,1,1,1,1,90333.0474863919,3,B
57,1,13/1/93,23,f,238,The dress wore Kate,Non-sensible,edin_semantics,emo_sem_emo_sem,0.785001096868655,2,2,2,1,90334.5763736102,100,B
57,1,13/1/93,23,f,239,Max kissed the mirror,Sensible,edin_semantics,emo_sem_emo_sem,1.00887110533949,2,1,1,1,90336.3287847804,23,B
57,1,13/1/93,23,f,240,Rob mailed the parcel,Sensible,edin_semantics,emo_sem_emo_sem,0.973498615130666,1,2,2,1,90338.0459199971,14,B
57,1,13/1/93,23,f,241,The sweets offered Tom,Non-sensible,edin_semantics,emo_sem_emo_sem,0.714482223789673,2,2,2,1,90339.5042950775,84,B
57,1,13/1/93,23,f,242,The rose kissed Hugh,Non-sensible,edin_semantics,emo_sem_emo_sem,0.879184589546639,1,2,2,1,90341.1273077382,98,B
57,1,13/1/93,23,f,243,The salt passed Leo,Non-sensible,edin_semantics,emo_sem_emo_sem,1.64400215780188,2,2,2,1,90343.5148470745,118,B
57,1,13/1/93,23,f,244,John described the pen,Sensible,edin_semantics,emo_sem_emo_sem,0.679183178392123,2,2,2,1,90344.9379048284,42,B
57,1,13/1/93,23,f,245,The shoes counted Lucy,Non-sensible,edin_semantics,emo_sem_emo_sem,0.74994387406332,1,1,1,1,90346.4315751055,123,B
57,1,13/1/93,23,f,246,The perfume sniffed Tim,Non-sensible,edin_semantics,emo_sem_emo_sem,0.855575454435893,1,1,1,1,90348.0310979388,93,B
57,1,13/1/93,23,f,247,The rope pulled Andy,Non-sensible,edin_semantics,emo_sem_emo_sem,0.902934841316892,2,2,2,1,90349.6776296124,148,B
57,1,13/1/93,23,f,248,The ticket took Tim,Non-sensible,edin_semantics,emo_sem_emo_sem,1.56186393275857,1,2,2,1,90351.9828190487,128,B
57,1,13/1/93,23,f,249,The curtains measured Rob,Non-sensible,edin_semantics,emo_sem_emo_sem,0.855473144867574,2,2,2,1,90353.5823495793,126,B
57,1,13/1/93,23,f,250,The ribbon cut Lucy,Non-sensible,edin_semantics,emo_sem_emo_sem,0.773621001746506,2,1,1,1,90355.0994974965,95,B
57,1,13/1/93,23,f,251,Tom knitted the scarf,Sensible,edin_semantics,emo_sem_emo_sem,0.819280253810575,1,2,2,1,90356.663741169,66,B
57,1,13/1/93,23,f,252,The invite mailed Ian,Non-sensible,edin_semantics,emo_sem_emo_sem,0.88968879931781,1,1,1,1,90358.2985094875,89,B
57,1,13/1/93,23,f,253,Liz scrubbed the bowl,Sensible,edin_semantics,emo_sem_emo_sem,0.748886140674585,1,2,2,1,90359.7921749539,56,B
57,1,13/1/93,23,f,254,The church described Erin,Non-sensible,edin_semantics,emo_sem_emo_sem,0.866589287703391,1,1,1,1,90361.4034810269,117,B
57,1,13/1/93,23,f,255,Kate lifted the box,Sensible,edin_semantics,emo_sem_emo_sem,0.796430262067588,1,1,1,1,90362.9441527677,69,B
57,1,13/1/93,23,f,256,The shed built Rose,Non-sensible,edin_semantics,emo_sem_emo_sem,0.926172583087464,2,1,1,1,90364.6142368091,121,B
57,1,13/1/93,23,f,257,Liz labeled the jar,Sensible,edin_semantics,emo_sem_emo_sem,0.761608768225415,2,1,1,1,90366.1196598576,61,B
57,1,13/1/93,23,f,258,The fat chewed Adam,Non-sensible,edin_semantics,emo_sem_emo_sem,1.00838104571449,1,2,2,1,90367.8720460117,106,B
57,1,13/1/93,23,f,259,The hair trimmed Bill,Non-sensible,edin_semantics,emo_sem_emo_sem,0.808783741304069,2,1,1,1,90369.4245327435,107,B
57,1,13/1/93,23,f,260,Mark washed the dishes,Sensible,edin_semantics,emo_sem_emo_sem,0.785302252596011,1,1,1,1,90370.953452996,57,B
57,1,13/1/93,23,f,261,Tim cleaned the floor,Sensible,edin_semantics,emo_sem_emo_sem,0.631942457766854,2,1,1,1,90372.3295173041,5,B
57,1,13/1/93,23,f,262,Kate served the dish,Sensible,edin_semantics,emo_sem_emo_sem,1.10287178783619,2,2,2,1,90374.1760122233,70,B
57,1,13/1/93,23,f,263,The party cancelled Phil,Non-sensible,edin_semantics,emo_sem_emo_sem,1.83143007605395,1,2,2,1,90376.7516998141,82,B
57,1,13/1/93,23,f,264,The candy sucked Sam,Non-sensible,edin_semantics,emo_sem_emo_sem,1.03205111758143,2,1,1,1,90378.527612037,87,B
57,1,13/1/93,23,f,265,Beth wiped the table,Sensible,edin_semantics,emo_sem_emo_sem,0.87940845185949,1,2,2,1,90380.1506497138,40,B
57,1,13/1/93,23,f,266,The donut iced Joe,Non-sensible,edin_semantics,emo_sem_emo_sem,0.890834409889067,1,1,1,1,90381.7854391999,119,B
57,1,13/1/93,23,f,267,The hospital visited Tom,Non-sensible,edin_semantics,emo_sem_emo_sem,0.97300278255716,1,1,1,1,90383.5025551734,91,B
57,1,13/1/93,23,f,268,Josh squeezed the ball,Sensible,edin_semantics,emo_sem_emo_sem,0.808272193477023,2,1,1,1,90385.0550088711,1,B
57,1,13/1/93,23,f,269,Jon jumped the fence,Sensible,edin_semantics,emo_sem_emo_sem,0.737988407912781,1,1,1,1,90386.5369542795,17,B
57,1,13/1/93,23,f,270,Sean read the book,Sensible,edin_semantics,emo_sem_emo_sem,0.973361347118043,2,2,2,1,90388.2540231072,4,B
57,1,13/1/93,23,f,271,The opera watched Adam,Non-sensible,edin_semantics,emo_sem_emo_sem,1.20845878816908,2,2,2,1,90390.2063776384,108,B
57,1,13/1/93,23,f,272,Jen fixed the laptop,Sensible,edin_semantics,emo_sem_emo_sem,0.855790336587233,2,1,1,1,90391.8058988681,37,B
57,1,13/1/93,23,f,273,Ben chewed the toffee,Sensible,edin_semantics,emo_sem_emo_sem,0.902704564621672,1,1,1,1,90393.452430221,31,B
57,1,13/1/93,23,f,274,The button pushed Ian,Non-sensible,edin_semantics,emo_sem_emo_sem,0.667450612381799,1,1,1,1,90394.8637445045,101,B
57,1,13/1/93,23,f,275,The carrots chopped Fred,Non-sensible,edin_semantics,emo_sem_emo_sem,0.785216299744206,2,2,2,1,90396.3927064504,102,B
57,1,13/1/93,23,f,276,Matt drank the juice,Sensible,edin_semantics,emo_sem_emo_sem,0.879247129880241,1,2,2,1,90398.0157563146,60,B
57,1,13/1/93,23,f,277,The pan washed Beth,Non-sensible,edin_semantics,emo_sem_emo_sem,0.784834322650568,2,2,2,1,90399.5446772085,132,B
57,1,13/1/93,23,f,278,The bath cleaned Jack,Non-sensible,edin_semantics,emo_sem_emo_sem,0.797015896154335,1,2,2,1,90401.0853896808,80,B
57,1,13/1/93,23,f,279,Lily dented the lorry,Sensible,edin_semantics,emo_sem_emo_sem,1.29087700146192,1,1,1,1,90403.1200565878,71,B
57,1,13/1/93,23,f,280,Phil sniffed the milk,Sensible,edin_semantics,emo_sem_emo_sem,0.738163841553614,1,2,2,1,90404.6019926953,18,B
57,1,13/1/93,23,f,281,The box labeled Ian,Non-sensible,edin_semantics,emo_sem_emo_sem,0.761807614399004,2,2,2,1,90406.1073679565,136,B
57,1,13/1/93,23,f,282,Leo stored the wine,Sensible,edin_semantics,emo_sem_emo_sem,0.985010205302387,2,2,2,1,90407.8362796778,52,B
57,1,13/1/93,23,f,283,The plants watered Luke,Non-sensible,edin_semantics,emo_sem_emo_sem,0.984740800791769,1,1,1,1,90409.5651490641,129,B
57,1,13/1/93,23,f,284,Lily got the kettle,Sensible,edin_semantics,emo_sem_emo_sem,0.855796750984155,1,1,1,1,90411.1646847262,13,B
57,1,13/1/93,23,f,285,Erin posted the card,Sensible,edin_semantics,emo_sem_emo_sem,1.13799700319942,1,2,2,1,90413.046470352,36,B
57,1,13/1/93,23,f,286,Hugh pulled the lever,Sensible,edin_semantics,emo_sem_emo_sem,0.902528489532415,1,1,1,1,90414.6929875933,45,B
57,1,13/1/93,23,f,287,The hotline dialed Hugh,Non-sensible,edin_semantics,emo_sem_emo_sem,0.691329152017715,2,2,2,1,90416.1278305112,138,B
57,1,13/1/93,23,f,288,Bill counted the sheets,Sensible,edin_semantics,emo_sem_emo_sem,0.773326901835389,2,2,2,1,90417.6450137076,48,B
57,1,13/1/93,23,f,289,The stairs climbed Ben,Non-sensible,edin_semantics,emo_sem_emo_sem,0.855747360154055,1,1,1,1,90419.2445442381,143,B
57,1,13/1/93,23,f,290,Phil typed the letter,Sensible,edin_semantics,emo_sem_emo_sem,0.808826717737247,2,1,1,1,90420.7969992187,49,B
57,1,13/1/93,23,f,291,Ryan painted the picture,Sensible,edin_semantics,emo_sem_emo_sem,0.656075648774276,2,1,1,1,90422.1966162153,35,B
57,1,13/1/93,23,f,292,Amy hugged the tree,Sensible,edin_semantics,emo_sem_emo_sem,1.24324275783147,2,1,1,1,90424.1841799904,11,B
57,1,13/1/93,23,f,293,The blanket stroked Ryan,Non-sensible,edin_semantics,emo_sem_emo_sem,0.726577523717424,2,2,2,1,90425.6543232367,116,B
57,1,13/1/93,23,f,294,The plate licked Jane,Non-sensible,edin_semantics,emo_sem_emo_sem,0.843916012498084,1,2,2,1,90427.2420839978,96,B
57,1,13/1/93,23,f,295,Luke climbed the hill,Sensible,edin_semantics,emo_sem_emo_sem,0.620492766480311,1,2,2,1,90428.6063756499,68,B
57,1,13/1/93,23,f,296,Ewan wrote the story,Sensible,edin_semantics,emo_sem_emo_sem,0.655509899326717,1,2,2,1,90430.00594518,74,B
57,1,13/1/93,23,f,297,Phil chopped the herbs,Sensible,edin_semantics,emo_sem_emo_sem,0.667208789775032,1,1,1,1,90431.4173027606,27,B
57,1,13/1/93,23,f,298,The house dusted Alex,Non-sensible,edin_semantics,emo_sem_emo_sem,1.47901755876956,2,2,2,1,90433.6401608986,122,B
57,1,13/1/93,23,f,299,The garage tidied Erin,Non-sensible,edin_semantics,emo_sem_emo_sem,1.04403833497781,2,1,1,1,90435.4278178749,77,B
57,1,13/1/93,23,f,300,The beer drank Jack,Non-sensible,edin_semantics,emo_sem_emo_sem,0.585222585839801,1,1,2,0,90436.756790597,135,B
