subject_column,AssignedList_column,subject_dob_column,subject_age_column,subject_gender_column,trialnum_column,Stim_column,Type_column,Experiment_column,OrderGroup_column,ReactionTime_column,StimSide_column,StimPosition_column,Response_column,Valid_column,TrialEndSecs_column
57,1,13/1/93,23,f,1,I saw the light,Sklar_filler,sklar_semantics,emo_sem_emo_sem,3.41361480545311,2,1,1,1,89606.9997501594
57,1,13/1/93,23,f,2,I solved the exercise,Sklar_control_B,sklar_semantics,emo_sem_emo_sem,0.737134652226814,1,2,2,1,89608.4816500256
57,1,13/1/93,23,f,3,I dug the paint,Sklar_violation,sklar_semantics,emo_sem_emo_sem,1.07917509625258,2,2,2,1,89610.3046352327
57,1,13/1/93,23,f,4,I burnt the clouds,Sklar_violation,sklar_semantics,emo_sem_emo_sem,0.807949228794314,1,1,1,1,89611.8570818746
57,1,13/1/93,23,f,5,I crumpled the paper,Sklar_control_B,sklar_semantics,emo_sem_emo_sem,0.796327631789609,1,2,2,1,89613.3978142315
57,1,13/1/93,23,f,6,I laundered the scarf,Sklar_control_B,sklar_semantics,emo_sem_emo_sem,0.985697828204138,1,2,2,1,89615.1267374987
57,1,13/1/93,23,f,7,I lifted the squash,Sklar_filler,sklar_semantics,emo_sem_emo_sem,1.00864884663315,1,2,2,1,89616.8790890151
57,1,13/1/93,23,f,8,I spread the glue,Sklar_control_A,sklar_semantics,emo_sem_emo_sem,0.844706265706918,2,1,1,1,89618.4668356645
57,1,13/1/93,23,f,9,I tied the shoelace,Sklar_control_B,sklar_semantics,emo_sem_emo_sem,0.865764396774466,2,1,1,1,89620.078134361
57,1,13/1/93,23,f,10,I found the key,Sklar_control_A,sklar_semantics,emo_sem_emo_sem,0.844499080820242,2,1,1,1,89621.6658303367
57,1,13/1/93,23,f,11,I cleaned the house,Sklar_filler,sklar_semantics,emo_sem_emo_sem,0.867915463430109,2,2,2,1,89623.2771011306
57,1,13/1/93,23,f,12,I drank the chair,Sklar_violation,sklar_semantics,emo_sem_emo_sem,0.797567854664521,1,1,1,1,89624.8178087921
57,1,13/1/93,23,f,13,I turned off the door,Sklar_violation,sklar_semantics,emo_sem_emo_sem,0.820494498373591,1,2,2,1,89626.3820713871
57,1,13/1/93,23,f,14,I threw the peas,Sklar_control_A,sklar_semantics,emo_sem_emo_sem,0.727297539298888,1,2,2,1,89627.8521662046
57,1,13/1/93,23,f,15,I ironed the clothes,Sklar_control_B,sklar_semantics,emo_sem_emo_sem,0.856331390634296,1,1,1,1,89629.4517207892
57,1,13/1/93,23,f,16,I sprinkled the sand,Sklar_control_A,sklar_semantics,emo_sem_emo_sem,0.796943734225351,2,2,2,1,89630.9923886814
57,1,13/1/93,23,f,17,I turned up the volume,Sklar_control_B,sklar_semantics,emo_sem_emo_sem,0.890971036453266,1,2,2,1,89632.6271698287
57,1,13/1/93,23,f,18,I cut the sand,Sklar_violation,sklar_semantics,emo_sem_emo_sem,1.00920689880149,2,2,2,1,89634.3796268619
57,1,13/1/93,23,f,19,I found the exercise,Sklar_filler,sklar_semantics,emo_sem_emo_sem,0.656418818791281,1,1,1,1,89635.7791563021
57,1,13/1/93,23,f,20,I tore the map,Sklar_control_B,sklar_semantics,emo_sem_emo_sem,0.668059338262537,1,2,2,1,89637.1904965638
57,1,13/1/93,23,f,21,I saw the clouds,Sklar_control_A,sklar_semantics,emo_sem_emo_sem,0.820523363145185,2,1,1,1,89638.7547322183
57,1,13/1/93,23,f,22,I broke the hat,Sklar_violation,sklar_semantics,emo_sem_emo_sem,1.02071656465705,1,1,1,1,89640.5188977636
57,1,13/1/93,23,f,23,I fixed the stairs,Sklar_control_A,sklar_semantics,emo_sem_emo_sem,0.962073298549512,1,1,1,1,89642.224250382
57,1,13/1/93,23,f,24,I watered the ground,Sklar_control_A,sklar_semantics,emo_sem_emo_sem,0.714959133896627,1,2,2,1,89643.6826642694
57,1,13/1/93,23,f,25,I tasted the vinegar,Sklar_control_A,sklar_semantics,emo_sem_emo_sem,0.962196775610209,1,1,1,1,89645.3879925131
57,1,13/1/93,23,f,26,I laundered the refrigerator,Sklar_violation,sklar_semantics,emo_sem_emo_sem,0.985919766215375,2,2,2,1,89647.1168676724
57,1,13/1/93,23,f,27,I broke the border,Sklar_control_B,sklar_semantics,emo_sem_emo_sem,0.973349801221048,1,1,1,1,89648.8339929467
57,1,13/1/93,23,f,28,I locked the ground,Sklar_violation,sklar_semantics,emo_sem_emo_sem,0.726443462903262,2,2,2,1,89650.3040944994
57,1,13/1/93,23,f,29,I tied the chasm,Sklar_violation,sklar_semantics,emo_sem_emo_sem,2.26691571615811,1,1,1,1,89653.3149479729
57,1,13/1/93,23,f,30,I swallowed the food,Sklar_control_B,sklar_semantics,emo_sem_emo_sem,0.774431139579974,1,2,2,1,89654.8321452809
57,1,13/1/93,23,f,31,I sewed the sock,Sklar_control_B,sklar_semantics,emo_sem_emo_sem,0.997344762072316,1,2,2,1,89656.5727619863
57,1,13/1/93,23,f,32,I cut the bread,Sklar_control_B,sklar_semantics,emo_sem_emo_sem,0.84480633023486,1,1,1,1,89658.1605307654
57,1,13/1/93,23,f,33,I heated the water,Sklar_control_A,sklar_semantics,emo_sem_emo_sem,0.844648856887943,1,2,2,1,89659.7482838292
57,1,13/1/93,23,f,34,I cooked the rice,Sklar_control_A,sklar_semantics,emo_sem_emo_sem,0.867617514886661,1,1,1,1,89661.3595690554
57,1,13/1/93,23,f,35,I prepared the stew,Sklar_filler,sklar_semantics,emo_sem_emo_sem,0.749846375299967,1,1,1,1,89662.8532101471
57,1,13/1/93,23,f,36,I turned off the computer,Sklar_control_B,sklar_semantics,emo_sem_emo_sem,0.785611747051007,2,2,2,1,89664.3821441904
57,1,13/1/93,23,f,37,I sold the string,Sklar_filler,sklar_semantics,emo_sem_emo_sem,0.750775500098825,1,2,2,1,89665.8758192783
57,1,13/1/93,23,f,38,I washed the head,Sklar_filler,sklar_semantics,emo_sem_emo_sem,0.715026164310984,1,1,1,1,89667.3341658146
57,1,13/1/93,23,f,39,I folded the diamond,Sklar_violation,sklar_semantics,emo_sem_emo_sem,0.77288527089695,2,2,2,1,89668.8513413137
57,1,13/1/93,23,f,40,I tasted the wine,Sklar_control_A,sklar_semantics,emo_sem_emo_sem,0.856107207597233,1,1,2,0,89670.4508865974
57,1,13/1/93,23,f,41,I scrubbed the thunder,Sklar_violation,sklar_semantics,emo_sem_emo_sem,0.903426504519302,2,1,1,1,89672.0974041593
57,1,13/1/93,23,f,42,I ironed the coffee,Sklar_violation,sklar_semantics,emo_sem_emo_sem,0.903130801016232,1,1,1,1,89673.7439842616
57,1,13/1/93,23,f,43,I changed the sock,Sklar_filler,sklar_semantics,emo_sem_emo_sem,0.985112194146495,1,1,1,1,89675.4728674389
57,1,13/1/93,23,f,44,I built the building,Sklar_control_B,sklar_semantics,emo_sem_emo_sem,0.739037802588427,1,1,1,1,89676.9548054707
57,1,13/1/93,23,f,45,I drew the map,Sklar_filler,sklar_semantics,emo_sem_emo_sem,0.831679916664143,1,2,2,1,89678.5307217347
57,1,13/1/93,23,f,46,I bought the shoe lace,Sklar_filler,sklar_semantics,emo_sem_emo_sem,0.786042794265086,1,1,1,1,89680.0596618717
57,1,13/1/93,23,f,47,I coloured the paper,Sklar_filler,sklar_semantics,emo_sem_emo_sem,1.03209120752581,2,2,2,1,89681.835627334
57,1,13/1/93,23,f,48,I fixed the gloves,Sklar_filler,sklar_semantics,emo_sem_emo_sem,0.902761011268012,1,1,1,1,89683.4821721572
57,1,13/1/93,23,f,49,I sweetened the chocolate milk ,Sklar_filler,sklar_semantics,emo_sem_emo_sem,0.831872989889234,1,1,1,1,89685.0581830334
57,1,13/1/93,23,f,50,I liked the scarf,Sklar_filler,sklar_semantics,emo_sem_emo_sem,1.09136436702101,2,2,2,1,89686.8928687346
57,1,13/1/93,23,f,51,I cut the wine,Sklar_violation,sklar_semantics,emo_sem_emo_sem,0.94974355258455,1,1,1,1,89688.5864698645
57,1,13/1/93,23,f,52,I tore the juice,Sklar_violation,sklar_semantics,emo_sem_emo_sem,0.974117283330997,2,2,2,1,89690.3036005912
57,1,13/1/93,23,f,53,I scrubbed the house,Sklar_control_B,sklar_semantics,emo_sem_emo_sem,0.842993302081595,1,1,1,1,89691.8913648802
57,1,13/1/93,23,f,54,I moved the chair,Sklar_control_A,sklar_semantics,emo_sem_emo_sem,0.915276453917613,1,1,1,1,89693.5496788313
57,1,13/1/93,23,f,55,I gathered the dice,Sklar_control_B,sklar_semantics,emo_sem_emo_sem,0.890735307504656,1,1,1,1,89695.1844263031
57,1,13/1/93,23,f,56,I imagined the well,Sklar_filler,sklar_semantics,emo_sem_emo_sem,0.961950142198475,1,2,2,1,89696.8898180493
57,1,13/1/93,23,f,57,I turned up the bread,Sklar_violation,sklar_semantics,emo_sem_emo_sem,1.00855519648758,2,2,2,1,89698.6422263331
57,1,13/1/93,23,f,58,I wiped the steam ,Sklar_control_A,sklar_semantics,emo_sem_emo_sem,1.39767279413354,2,2,2,1,89700.7827470792
57,1,13/1/93,23,f,59,I shampooed the hair,Sklar_control_B,sklar_semantics,emo_sem_emo_sem,0.726088105540839,2,1,1,1,89702.2528598571
57,1,13/1/93,23,f,60,I shaved the glue,Sklar_violation,sklar_semantics,emo_sem_emo_sem,0.749923348004813,1,1,1,1,89703.7465147396
57,1,13/1/93,23,f,61,I washed the dance,Sklar_violation,sklar_semantics,emo_sem_emo_sem,0.738869424763834,1,2,2,1,89705.2284014563
57,1,13/1/93,23,f,62,I folded the vest,Sklar_control_B,sklar_semantics,emo_sem_emo_sem,1.10349719112855,1,2,2,1,89707.0749059971
57,1,13/1/93,23,f,63,I fixed up the shower,Sklar_control_A,sklar_semantics,emo_sem_emo_sem,1.36184808921826,2,1,1,1,89709.1801389229
57,1,13/1/93,23,f,64,I smelled the pie,Sklar_control_B,sklar_semantics,emo_sem_emo_sem,1.15026260525337,2,2,2,1,89711.0736814895
57,1,13/1/93,23,f,65,I locked the cabinet,Sklar_control_B,sklar_semantics,emo_sem_emo_sem,1.23138511116849,2,2,2,1,89713.0495755596
57,1,13/1/93,23,f,66,I painted the building,Sklar_filler,sklar_semantics,emo_sem_emo_sem,0.962179456750164,1,1,1,1,89714.7549092556
57,1,13/1/93,23,f,67,I interviewed the woman,Sklar_control_B,sklar_semantics,emo_sem_emo_sem,1.16176810173783,2,1,1,1,89716.6602244781
57,1,13/1/93,23,f,68,I washed the cup,Sklar_filler,sklar_semantics,emo_sem_emo_sem,0.879713776972494,2,2,2,1,89718.2832518919
57,1,13/1/93,23,f,69,I smelled the smoke,Sklar_control_A,sklar_semantics,emo_sem_emo_sem,0.90295312233502,1,2,2,1,89719.9298384086
57,1,13/1/93,23,f,70,I lit the rain,Sklar_violation,sklar_semantics,emo_sem_emo_sem,1.65658976238046,2,1,1,1,89722.3290596372
57,1,13/1/93,23,f,71,I washed the floor,Sklar_control_B,sklar_semantics,emo_sem_emo_sem,1.00902216428949,1,2,2,1,89724.0814929371
57,1,13/1/93,23,f,72,I found the chasm,Sklar_control_A,sklar_semantics,emo_sem_emo_sem,1.11380800695042,1,1,1,1,89725.9397688509
57,1,13/1/93,23,f,73,I cut the string,Sklar_control_B,sklar_semantics,emo_sem_emo_sem,0.679583436489338,2,2,2,1,89727.3628323778
57,1,13/1/93,23,f,74,I heard the thunder,Sklar_control_A,sklar_semantics,emo_sem_emo_sem,0.879464257071959,2,1,1,1,89728.9858411899
57,1,13/1/93,23,f,75,I cooked the stairs,Sklar_violation,sklar_semantics,emo_sem_emo_sem,0.785328551617567,2,1,1,1,89730.5147745918
57,1,13/1/93,23,f,76,I looked for the paint,Sklar_control_A,sklar_semantics,emo_sem_emo_sem,0.902830286708195,2,2,2,1,89732.1612963231
57,1,13/1/93,23,f,77,I lifted the hammer,Sklar_control_A,sklar_semantics,emo_sem_emo_sem,0.820297255791957,2,1,1,1,89733.7255505794
57,1,13/1/93,23,f,78,I changed the computer,Sklar_filler,sklar_semantics,emo_sem_emo_sem,0.772662050003419,2,2,2,1,89735.2427315307
57,1,13/1/93,23,f,79,I cleaned the floor,Sklar_filler,sklar_semantics,emo_sem_emo_sem,0.843857962245238,2,1,1,1,89736.8304791423
57,1,13/1/93,23,f,80,I wore the way,Sklar_violation,sklar_semantics,emo_sem_emo_sem,1.17271169742162,1,2,2,1,89738.7475311002
57,1,13/1/93,23,f,81,I sewed the smoke,Sklar_violation,sklar_semantics,emo_sem_emo_sem,0.7270303798432,2,2,2,1,89740.2176666491
57,1,13/1/93,23,f,82,I closed the door,Sklar_control_A,sklar_semantics,emo_sem_emo_sem,0.891635246836813,1,2,2,1,89741.8524987909
57,1,13/1/93,23,f,83,I spilled the juice,Sklar_control_B,sklar_semantics,emo_sem_emo_sem,0.773208235565107,2,1,1,1,89743.3696441423
57,1,13/1/93,23,f,84,I solved the peas,Sklar_violation,sklar_semantics,emo_sem_emo_sem,0.785347153359908,2,2,2,1,89744.8985842793
57,1,13/1/93,23,f,85,I photographed the river,Sklar_control_A,sklar_semantics,emo_sem_emo_sem,0.914649767728406,1,2,2,1,89746.5569338304
57,1,13/1/93,23,f,86,I photographed the moon,Sklar_control_A,sklar_semantics,emo_sem_emo_sem,0.820784749652375,1,1,1,1,89748.1210941158
57,1,13/1/93,23,f,87,I closed the cabinet,Sklar_filler,sklar_semantics,emo_sem_emo_sem,0.972740754616098,1,1,1,1,89749.8382488964
57,1,13/1/93,23,f,88,I bought the clothes,Sklar_filler,sklar_semantics,emo_sem_emo_sem,0.902432594361017,1,2,2,1,89751.484796606
57,1,13/1/93,23,f,89,I woke up the child,Sklar_control_B,sklar_semantics,emo_sem_emo_sem,1.50347595950007,1,2,2,1,89753.7311737569
57,1,13/1/93,23,f,90,I liked the dance,Sklar_control_A,sklar_semantics,emo_sem_emo_sem,1.95005272630078,1,2,2,1,89756.4244580159
57,1,13/1/93,23,f,91,I heard the sound,Sklar_filler,sklar_semantics,emo_sem_emo_sem,0.797547328606015,2,2,2,1,89757.9651762611
57,1,13/1/93,23,f,92,I broke the water,Sklar_violation,sklar_semantics,emo_sem_emo_sem,1.11366721102968,2,2,2,1,89759.823412085
57,1,13/1/93,23,f,93,I cooked the tomatoes,Sklar_filler,sklar_semantics,emo_sem_emo_sem,0.856597587931901,1,1,1,1,89761.4228874518
57,1,13/1/93,23,f,94,I imagined the border,Sklar_filler,sklar_semantics,emo_sem_emo_sem,0.73762503254693,1,1,1,1,89762.9048248422
57,1,13/1/93,23,f,95,I drew the rain,Sklar_control_A,sklar_semantics,emo_sem_emo_sem,1.16097399989667,2,1,1,1,89764.8101323674
57,1,13/1/93,23,f,96,I drank the chocolate milk,Sklar_control_B,sklar_semantics,emo_sem_emo_sem,0.667713923205156,1,1,1,1,89766.2214947588
57,1,13/1/93,23,f,97,I planted the plant,Sklar_control_B,sklar_semantics,emo_sem_emo_sem,0.667697245793534,1,1,1,1,89767.6327744045
57,1,13/1/93,23,f,98,I burnt the stew,Sklar_control_B,sklar_semantics,emo_sem_emo_sem,0.679920512848184,2,1,1,1,89769.0558886051
57,1,13/1/93,23,f,99,I warmed up the food,Sklar_filler,sklar_semantics,emo_sem_emo_sem,0.809099329431774,1,2,2,1,89770.6083394163
57,1,13/1/93,23,f,100,I baked the pie,Sklar_filler,sklar_semantics,emo_sem_emo_sem,1.69155590080481,2,2,2,1,89773.0429036289
57,1,13/1/93,23,f,101,I planted the hammer,Sklar_violation,sklar_semantics,emo_sem_emo_sem,0.950534126488492,1,1,1,1,89774.7364973823
57,1,13/1/93,23,f,102,I cooked the tomatoes,Sklar_control_B,sklar_semantics,emo_sem_emo_sem,0.961079067667015,2,1,1,1,89776.4418426242
57,1,13/1/93,23,f,103,I moved the hat,Sklar_control_A,sklar_semantics,emo_sem_emo_sem,1.03240070198081,1,1,1,1,89778.2177577335
57,1,13/1/93,23,f,104,I sold the diamond,Sklar_control_A,sklar_semantics,emo_sem_emo_sem,0.749762988183647,1,2,2,1,89779.7114357079
57,1,13/1/93,23,f,105,I built the rice,Sklar_violation,sklar_semantics,emo_sem_emo_sem,0.832287359662587,2,1,1,1,89781.2874266995
57,1,13/1/93,23,f,106,I baked the bread,Sklar_control_A,sklar_semantics,emo_sem_emo_sem,0.879410376175656,2,2,2,1,89782.9104707908
57,1,13/1/93,23,f,107,I interviewed the vinegar,Sklar_violation,sklar_semantics,emo_sem_emo_sem,1.18541411960905,2,1,1,1,89784.8392950839
57,1,13/1/93,23,f,108,I threw the bread,Sklar_filler,sklar_semantics,emo_sem_emo_sem,0.87853160436498,2,1,1,1,89786.4622852942
57,1,13/1/93,23,f,109,I fried the squash,Sklar_control_B,sklar_semantics,emo_sem_emo_sem,0.772806694585597,1,1,1,1,89787.9794912617
57,1,13/1/93,23,f,110,I wiped the juice,Sklar_control_A,sklar_semantics,emo_sem_emo_sem,1.04399086847843,1,2,2,1,89789.7671982702
57,1,13/1/93,23,f,111,I met the child,Sklar_filler,sklar_semantics,emo_sem_emo_sem,1.42024632550601,1,2,2,1,89791.931215258
57,1,13/1/93,23,f,112,I spilled the moon,Sklar_violation,sklar_semantics,emo_sem_emo_sem,0.950030596650322,2,1,1,1,89793.6248151051
57,1,13/1/93,23,f,113,I smelled the hair,Sklar_filler,sklar_semantics,emo_sem_emo_sem,0.938566472992534,1,1,1,1,89795.3066362026
57,1,13/1/93,23,f,114,I fried the shirt,Sklar_violation,sklar_semantics,emo_sem_emo_sem,0.820422977907583,2,1,1,1,89796.8708769886
57,1,13/1/93,23,f,115,I swallowed the shed,Sklar_violation,sklar_semantics,emo_sem_emo_sem,0.890526519026025,1,2,2,1,89798.5056382513
57,1,13/1/93,23,f,116,I wore the shirt,Sklar_control_A,sklar_semantics,emo_sem_emo_sem,0.808531334958388,1,1,1,1,89800.0581307561
57,1,13/1/93,23,f,117,I dug the well,Sklar_control_B,sklar_semantics,emo_sem_emo_sem,0.855957431529532,1,2,2,1,89801.6576766813
57,1,13/1/93,23,f,118,I sweetened the juice,Sklar_filler,sklar_semantics,emo_sem_emo_sem,0.879249054196407,1,2,2,1,89803.2806739474
57,1,13/1/93,23,f,119,I smelled the melody,Sklar_violation,sklar_semantics,emo_sem_emo_sem,0.70172944861406,2,2,2,1,89804.7272988222
57,1,13/1/93,23,f,120,I woke up the steam,Sklar_violation,sklar_semantics,emo_sem_emo_sem,0.9270167171926,1,2,2,1,89806.3973398871
57,1,13/1/93,23,f,121,I crumpled the river,Sklar_violation,sklar_semantics,emo_sem_emo_sem,1.83282135787886,2,2,2,1,89808.9730287609
57,1,13/1/93,23,f,122,I met the woman,Sklar_filler,sklar_semantics,emo_sem_emo_sem,2.36158413696103,2,1,1,1,89812.0779858678
57,1,13/1/93,23,f,123,I played the melody,Sklar_control_A,sklar_semantics,emo_sem_emo_sem,1.0913101654005,1,2,2,1,89813.9127280156
57,1,13/1/93,23,f,124,I broke the glass,Sklar_control_B,sklar_semantics,emo_sem_emo_sem,0.725860073871445,2,2,2,1,89815.3827830639
57,1,13/1/93,23,f,125,I shampooed the key,Sklar_violation,sklar_semantics,emo_sem_emo_sem,0.784537015540991,2,1,1,1,89816.9118142854
57,1,13/1/93,23,f,126,I fixed up the shed,Sklar_control_A,sklar_semantics,emo_sem_emo_sem,0.819953765050741,1,2,2,1,89818.4760047184
57,1,13/1/93,23,f,127,I watered the plant,Sklar_filler,sklar_semantics,emo_sem_emo_sem,1.37347064838104,1,2,2,1,89820.5930038858
57,1,13/1/93,23,f,128,I wore the vest,Sklar_filler,sklar_semantics,emo_sem_emo_sem,1.31487998030207,2,1,1,1,89822.6512276507
57,1,13/1/93,23,f,129,I scattered the dice,Sklar_filler,sklar_semantics,emo_sem_emo_sem,0.820939977958915,1,2,2,1,89824.2154235359
57,1,13/1/93,23,f,130,I gathered the shower,Sklar_violation,sklar_semantics,emo_sem_emo_sem,1.05444472524687,2,1,1,1,89826.0148685627
57,1,13/1/93,23,f,131,I opened the refrigerator,Sklar_control_A,sklar_semantics,emo_sem_emo_sem,1.51427907997277,2,2,2,1,89828.2731277349
57,1,13/1/93,23,f,132,I shaved the head,Sklar_control_B,sklar_semantics,emo_sem_emo_sem,1.34927972781588,2,1,1,1,89830.3665014105
57,1,13/1/93,23,f,133,I lit the lamp,Sklar_control_B,sklar_semantics,emo_sem_emo_sem,1.03129646426532,1,1,1,1,89832.1423709777
57,1,13/1/93,23,f,134,I made the coffee,Sklar_control_A,sklar_semantics,emo_sem_emo_sem,0.784964855542057,1,1,1,1,89833.6713435074
57,1,13/1/93,23,f,135,I looked for the way,Sklar_control_A,sklar_semantics,emo_sem_emo_sem,1.00850676781556,2,2,2,1,89835.4237521119
57,1,13/1/93,23,f,136,I wore the gloves,Sklar_control_B,sklar_semantics,emo_sem_emo_sem,1.13854799955152,1,2,2,1,89837.3055303612
