subject_column,AssignedList_column,subject_dob_column,subject_age_column,subject_gender_column,trialnum_column,Stim_column,Type_column,Experiment_column,OrderGroup_column,ReactionTime_column,StimSide_column,StimPosition_column,Response_column,Valid_column,TrialEndSecs_column,PairID_column,List_column
58,2,3/3/94,22,f,1,The coins polished Jon,Non-sensible,edin_semantics,sem_emo_sem_emo,2.52904950243828,1,2,2,1,98303.7330865289,29,A
58,2,3/3/94,22,f,2,Ella mashed the turnip,Sensible,edin_semantics,sem_emo_sem_emo,1.13383534509921,1,2,2,1,98305.6148371963,103,A
58,2,3/3/94,22,f,3,The tomato sliced Liz,Non-sensible,edin_semantics,sem_emo_sem_emo,1.15716417125077,2,2,2,1,98307.5201646061,3,A
58,2,3/3/94,22,f,4,Jane licked the plate,Sensible,edin_semantics,sem_emo_sem_emo,1.78180961568432,2,1,1,1,98310.0487914001,96,A
58,2,3/3/94,22,f,5,Luke fixed the radio,Sensible,edin_semantics,sem_emo_sem_emo,2.77189905798878,2,1,1,1,98313.565360739,112,A
58,2,3/3/94,22,f,6,Joe entered the office,Sensible,edin_semantics,sem_emo_sem_emo,1.64376386310323,2,2,2,1,98315.9529019996,133,A
58,2,3/3/94,22,f,7,The handle pulled Tim,Non-sensible,edin_semantics,sem_emo_sem_emo,1.20882376712689,1,2,2,1,98317.9052077814,73,A
58,2,3/3/94,22,f,8,Jay sold the bed,Sensible,edin_semantics,sem_emo_sem_emo,1.13814677926712,1,2,2,1,98319.7869494687,113,A
58,2,3/3/94,22,f,9,Ian mailed the invite,Sensible,edin_semantics,sem_emo_sem_emo,1.14981776710192,2,2,2,1,98321.6805192964,89,A
58,2,3/3/94,22,f,10,The room searched Jen,Non-sensible,edin_semantics,sem_emo_sem_emo,1.22062657072092,1,1,1,1,98323.6446233918,10,A
58,2,3/3/94,22,f,11,Ryan knitted the socks,Sensible,edin_semantics,sem_emo_sem_emo,1.00871010408446,2,2,2,1,98325.3970377692,141,A
58,2,3/3/94,22,f,12,Josh scrubbed the pot,Sensible,edin_semantics,sem_emo_sem_emo,1.09126462320273,2,2,2,1,98327.2317741441,131,A
58,2,3/3/94,22,f,13,Phil solved the problem,Sensible,edin_semantics,sem_emo_sem_emo,1.79645495748264,2,2,2,1,98329.7721424842,109,A
58,2,3/3/94,22,f,14,Emma pulled the rope,Sensible,edin_semantics,sem_emo_sem_emo,0.843570276731043,1,1,1,1,98331.3599372416,120,A
58,2,3/3/94,22,f,15,The wall punched Jane,Non-sensible,edin_semantics,sem_emo_sem_emo,3.20739880975452,2,1,1,1,98335.3116096021,50,A
58,2,3/3/94,22,f,16,The hill climbed Luke,Non-sensible,edin_semantics,sem_emo_sem_emo,1.6674506123818,2,1,1,1,98337.7226567261,68,A
58,2,3/3/94,22,f,17,The papers filed Lara,Non-sensible,edin_semantics,sem_emo_sem_emo,1.94981507305056,1,1,1,1,98340.4159397021,24,A
58,2,3/3/94,22,f,18,Tim sniffed the perfume,Sensible,edin_semantics,sem_emo_sem_emo,1.65462535455299,1,2,2,1,98342.8152010207,93,A
58,2,3/3/94,22,f,19,The fence jumped Jon,Non-sensible,edin_semantics,sem_emo_sem_emo,1.21947679080768,1,2,2,1,98344.7793201898,17,A
58,2,3/3/94,22,f,20,The fur stroked Rob,Non-sensible,edin_semantics,sem_emo_sem_emo,1.42012284845987,1,2,2,1,98346.9433432714,41,A
58,2,3/3/94,22,f,21,The folder carried Dan,Non-sensible,edin_semantics,sem_emo_sem_emo,1.07932487232029,2,1,1,1,98348.7663194983,30,A
58,2,3/3/94,22,f,22,The shirt ironed Josh,Non-sensible,edin_semantics,sem_emo_sem_emo,1.06735497378395,1,2,2,1,98350.5775384639,55,A
58,2,3/3/94,22,f,23,Tom offered the sweets,Sensible,edin_semantics,sem_emo_sem_emo,1.34974284698546,2,1,1,1,98352.6710375409,84,A
58,2,3/3/94,22,f,24,Jay squeezed the lemon,Sensible,edin_semantics,sem_emo_sem_emo,1.07929600754869,1,1,1,1,98354.4939865067,76,A
58,2,3/3/94,22,f,25,Hugh kissed the rose,Sensible,edin_semantics,sem_emo_sem_emo,1.39643834420713,2,1,1,1,98356.6344892925,98,A
58,2,3/3/94,22,f,26,The story wrote Ewan,Non-sensible,edin_semantics,sem_emo_sem_emo,0.97358328512928,1,1,1,1,98358.3518522201,74,A
58,2,3/3/94,22,f,27,Jack drank the beer,Sensible,edin_semantics,sem_emo_sem_emo,1.30272855443764,1,2,2,1,98360.3980615063,135,A
58,2,3/3/94,22,f,28,Alex dusted the house,Sensible,edin_semantics,sem_emo_sem_emo,2.23078312039434,2,1,1,1,98363.3735845038,122,A
58,2,3/3/94,22,f,29,Liam sliced the onion,Sensible,edin_semantics,sem_emo_sem_emo,1.65516352211125,2,1,1,1,98365.7728515953,78,A
58,2,3/3/94,22,f,30,The book read Sean,Non-sensible,edin_semantics,sem_emo_sem_emo,1.86624547625252,2,1,1,1,98368.3837949344,4,A
58,2,3/3/94,22,f,31,Eve ironed the trousers,Sensible,edin_semantics,sem_emo_sem_emo,1.4317611228762,1,1,1,1,98370.5596596267,130,A
58,2,3/3/94,22,f,32,Lucy cut the ribbon,Sensible,edin_semantics,sem_emo_sem_emo,0.914841237361543,1,2,2,1,98372.2179408644,95,A
58,2,3/3/94,22,f,33,Amy lifted the crate,Sensible,edin_semantics,sem_emo_sem_emo,1.64431902881188,1,1,1,1,98374.605455826,144,A
58,2,3/3/94,22,f,34,Fred stored the rice,Sensible,edin_semantics,sem_emo_sem_emo,1.06709294584289,1,2,2,1,98376.4166792816,127,A
58,2,3/3/94,22,f,35,Ian labeled the box,Sensible,edin_semantics,sem_emo_sem_emo,1.09029797420953,1,1,1,1,98378.251402507,136,A
58,2,3/3/94,22,f,36,The ball squeezed Josh,Non-sensible,edin_semantics,sem_emo_sem_emo,1.0560024605511,1,2,2,1,98380.0508401572,1,A
58,2,3/3/94,22,f,37,The ham ate Tim,Non-sensible,edin_semantics,sem_emo_sem_emo,0.997131483498379,1,2,2,1,98381.791475785,67,A
58,2,3/3/94,22,f,38,The floor cleaned Tim,Non-sensible,edin_semantics,sem_emo_sem_emo,1.16099003588897,1,2,2,1,98383.6968208345,5,A
58,2,3/3/94,22,f,39,The movie watched Ella,Non-sensible,edin_semantics,sem_emo_sem_emo,1.18406581424642,1,2,2,1,98385.6256050376,33,A
58,2,3/3/94,22,f,40,The paper cut Jon,Non-sensible,edin_semantics,sem_emo_sem_emo,1.30286582245026,1,1,1,1,98387.6720837284,20,A
58,2,3/3/94,22,f,41,Luke watered the plants,Sensible,edin_semantics,sem_emo_sem_emo,1.03234072741179,1,2,2,1,98389.4480129494,129,A
58,2,3/3/94,22,f,42,The bushes trimmed Jon,Non-sensible,edin_semantics,sem_emo_sem_emo,0.832739253644831,1,1,1,1,98391.0239859807,32,A
58,2,3/3/94,22,f,43,Kate hugged the pillow,Sensible,edin_semantics,sem_emo_sem_emo,1.44320600335777,2,1,1,1,98393.2115505255,86,A
58,2,3/3/94,22,f,44,The gun carried Ryan,Non-sensible,edin_semantics,sem_emo_sem_emo,2.39583603272331,2,2,2,1,98396.351726498,75,A
58,2,3/3/94,22,f,45,The scarf knitted Tom,Non-sensible,edin_semantics,sem_emo_sem_emo,1.16161864637979,1,1,1,1,98398.2570298539,66,A
58,2,3/3/94,22,f,46,The cheese grated Andy,Non-sensible,edin_semantics,sem_emo_sem_emo,2.32513114226458,2,2,2,1,98401.3266728416,65,A
58,2,3/3/94,22,f,47,The card posted Erin,Non-sensible,edin_semantics,sem_emo_sem_emo,0.948366061697016,2,1,1,1,98403.0202787823,36,A
58,2,3/3/94,22,f,48,The pill swallowed Luke,Non-sensible,edin_semantics,sem_emo_sem_emo,1.83213181064639,2,1,1,1,98405.595979202,22,A
58,2,3/3/94,22,f,49,The pen described John,Non-sensible,edin_semantics,sem_emo_sem_emo,0.889950827258872,1,1,1,1,98407.2307670844,42,A
58,2,3/3/94,22,f,50,Fred lent the car,Sensible,edin_semantics,sem_emo_sem_emo,0.985450874097296,1,1,1,1,98408.9596053609,94,A
58,2,3/3/94,22,f,51,The sofa sold Carl,Non-sensible,edin_semantics,sem_emo_sem_emo,0.961583880372928,2,1,1,1,98410.6650105773,38,A
58,2,3/3/94,22,f,52,Tom grated the carrots,Sensible,edin_semantics,sem_emo_sem_emo,1.23244476887339,2,1,1,1,98412.6408780278,140,A
58,2,3/3/94,22,f,53,The thread measured Amy,Non-sensible,edin_semantics,sem_emo_sem_emo,1.03170858901285,2,2,2,1,98414.4167931371,51,A
58,2,3/3/94,22,f,54,Lucy wiped the desk,Sensible,edin_semantics,sem_emo_sem_emo,1.04374872514745,1,2,2,1,98416.204456207,115,A
58,2,3/3/94,22,f,55,Jay painted the portrait,Sensible,edin_semantics,sem_emo_sem_emo,1.12608707923209,2,1,1,1,98418.0744778363,110,A
58,2,3/3/94,22,f,56,Beth washed the pan,Sensible,edin_semantics,sem_emo_sem_emo,0.949832071200944,1,1,1,1,98419.7680898708,132,A
58,2,3/3/94,22,f,57,Liam mixed the nuts,Sensible,edin_semantics,sem_emo_sem_emo,1.51319921693357,2,2,2,1,98422.0262624487,83,A
58,2,3/3/94,22,f,58,Ian dented the bowl,Sensible,edin_semantics,sem_emo_sem_emo,1.29048091269215,2,1,1,1,98424.0608940766,146,A
58,2,3/3/94,22,f,59,The kettle got Lily,Non-sensible,edin_semantics,sem_emo_sem_emo,0.922264934954001,1,2,2,1,98425.7192099521,13,A
58,2,3/3/94,22,f,60,The jar labeled Liz,Non-sensible,edin_semantics,sem_emo_sem_emo,0.961574258792098,1,2,2,1,98427.4245401201,61,A
58,2,3/3/94,22,f,61,Luke read the poster,Sensible,edin_semantics,sem_emo_sem_emo,0.784637080068933,1,2,2,1,98428.9534812193,79,A
58,2,3/3/94,22,f,62,The room entered Ryan,Non-sensible,edin_semantics,sem_emo_sem_emo,0.832644320631516,1,1,1,1,98430.5294731731,58,A
58,2,3/3/94,22,f,63,Owen swallowed the gum,Sensible,edin_semantics,sem_emo_sem_emo,0.820542285597185,1,2,2,1,98432.0937081862,97,A
58,2,3/3/94,22,f,64,The dishes washed Mark,Non-sensible,edin_semantics,sem_emo_sem_emo,0.820474613748956,2,2,2,1,98433.6579630839,57,A
58,2,3/3/94,22,f,65,The teeth brushed Carl,Non-sensible,edin_semantics,sem_emo_sem_emo,1.20913133726572,1,1,1,1,98435.6102730351,72,A
58,2,3/3/94,22,f,66,Adam watched the opera,Sensible,edin_semantics,sem_emo_sem_emo,1.79667817836162,2,1,1,1,98438.1507391946,108,A
58,2,3/3/94,22,f,67,The lesson taught Eve,Non-sensible,edin_semantics,sem_emo_sem_emo,0.973041268924135,1,2,2,1,98439.8678083431,15,A
58,2,3/3/94,22,f,68,The museum visited Mary,Non-sensible,edin_semantics,sem_emo_sem_emo,2.17265364716877,1,1,1,1,98442.7845565794,16,A
58,2,3/3/94,22,f,69,The towels passed Phil,Non-sensible,edin_semantics,sem_emo_sem_emo,1.04317046761571,2,2,2,1,98444.5722587771,43,A
58,2,3/3/94,22,f,70,Rose built the shed,Sensible,edin_semantics,sem_emo_sem_emo,1.04294243596087,1,2,2,1,98446.3599394866,121,A
58,2,3/3/94,22,f,71,Tom visited the hospital,Sensible,edin_semantics,sem_emo_sem_emo,1.00779252518259,2,2,2,1,98448.1124269882,91,A
58,2,3/3/94,22,f,72,The puzzle solved Joe,Non-sensible,edin_semantics,sem_emo_sem_emo,0.925729669252178,2,1,1,1,98449.7824019849,34,A
58,2,3/3/94,22,f,73,The money offered Matt,Non-sensible,edin_semantics,sem_emo_sem_emo,0.973436716245487,2,2,2,1,98451.4995487475,9,A
58,2,3/3/94,22,f,74,Joe iced the donut,Sensible,edin_semantics,sem_emo_sem_emo,1.24445443662989,2,2,2,1,98453.4871304829,119,A
58,2,3/3/94,22,f,75,Bill trimmed the hair,Sensible,edin_semantics,sem_emo_sem_emo,1.27871595401666,2,2,2,1,98455.5100596923,107,A
58,2,3/3/94,22,f,76,The shelf dusted Jake,Non-sensible,edin_semantics,sem_emo_sem_emo,1.69138207074138,1,2,2,1,98457.9446120383,47,A
58,2,3/3/94,22,f,77,Ian pushed the button,Sensible,edin_semantics,sem_emo_sem_emo,1.14895920061099,1,2,2,1,98459.8381449832,101,A
58,2,3/3/94,22,f,78,The parcel mailed Rob,Non-sensible,edin_semantics,sem_emo_sem_emo,0.947744186312775,1,1,1,1,98461.5317496411,14,A
58,2,3/3/94,22,f,79,Mike ate the steak,Sensible,edin_semantics,sem_emo_sem_emo,1.19629581640766,1,1,2,0,98463.4723222155,142,A
58,2,3/3/94,22,f,80,The jumper wore Joe,Non-sensible,edin_semantics,sem_emo_sem_emo,1.72549188772973,1,2,2,1,98465.9421511565,25,A
58,2,3/3/94,22,f,81,Lucy counted the shoes,Sensible,edin_semantics,sem_emo_sem_emo,1.54935490450589,2,2,2,1,98468.2355884628,123,A
58,2,3/3/94,22,f,82,Erin described the church,Sensible,edin_semantics,sem_emo_sem_emo,1.4909281241562,2,2,2,1,98470.4702096352,117,A
58,2,3/3/94,22,f,83,Phil cancelled the party,Sensible,edin_semantics,sem_emo_sem_emo,1.27956842682033,1,1,1,1,98472.4931077349,82,A
58,2,3/3/94,22,f,84,The lolly sucked Leah,Non-sensible,edin_semantics,sem_emo_sem_emo,1.23195021916763,2,1,1,1,98474.4689559421,12,A
58,2,3/3/94,22,f,85,Jack cleaned the bath,Sensible,edin_semantics,sem_emo_sem_emo,0.961269895851729,1,1,1,1,98476.174329728,80,A
58,2,3/3/94,22,f,86,Leo passed the salt,Sensible,edin_semantics,sem_emo_sem_emo,0.949449131934671,2,1,1,1,98477.8679193121,118,A
58,2,3/3/94,22,f,87,The sheets counted Bill,Non-sensible,edin_semantics,sem_emo_sem_emo,0.961732052848674,1,1,1,1,98479.5733120204,48,A
58,2,3/3/94,22,f,88,Ben got the radio,Sensible,edin_semantics,sem_emo_sem_emo,1.46710089969565,2,1,1,1,98481.7843532432,88,A
58,2,3/3/94,22,f,89,Adam chewed the fat,Sensible,edin_semantics,sem_emo_sem_emo,0.938126766355708,1,1,1,1,98483.466202564,106,A
58,2,3/3/94,22,f,90,Tim took the ticket,Sensible,edin_semantics,sem_emo_sem_emo,0.985046125904773,1,1,1,1,98485.1950751574,128,A
58,2,3/3/94,22,f,91,The eggs whisked Dan,Non-sensible,edin_semantics,sem_emo_sem_emo,0.856061986123677,1,1,1,1,98486.7946021601,62,A
58,2,3/3/94,22,f,92,The bill paid Mike,Non-sensible,edin_semantics,sem_emo_sem_emo,1.07877227237623,1,2,2,1,98488.6175719727,59,A
58,2,3/3/94,22,f,93,Leo carried the wallet,Sensible,edin_semantics,sem_emo_sem_emo,1.16049163756543,1,1,1,1,98490.5228612169,150,A
58,2,3/3/94,22,f,94,The cake iced Mary,Non-sensible,edin_semantics,sem_emo_sem_emo,1.17261740584217,1,1,1,1,98492.4399490954,44,A
58,2,3/3/94,22,f,95,Sam sucked the candy,Sensible,edin_semantics,sem_emo_sem_emo,1.10208987334045,2,2,2,1,98494.2864036039,87,A
58,2,3/3/94,22,f,96,Max searched the internet,Sensible,edin_semantics,sem_emo_sem_emo,1.12590587262821,2,2,2,1,98496.1564499286,85,A
58,2,3/3/94,22,f,97,Josh crushed the ice,Sensible,edin_semantics,sem_emo_sem_emo,1.30260539810115,2,2,2,1,98498.2028683241,81,A
58,2,3/3/94,22,f,98,The toffee chewed Ben,Non-sensible,edin_semantics,sem_emo_sem_emo,1.13822311053809,2,2,2,1,98500.084652667,31,A
58,2,3/3/94,22,f,99,The plans cancelled Ian,Non-sensible,edin_semantics,sem_emo_sem_emo,1.49069816817064,2,2,2,1,98502.3193171366,7,A
58,2,3/3/94,22,f,100,Alex wrote the report,Sensible,edin_semantics,sem_emo_sem_emo,1.00914884854865,1,2,2,1,98504.0716538999,149,A
58,2,3/3/94,22,f,101,Max kicked the door,Sensible,edin_semantics,sem_emo_sem_emo,1.54995561239775,2,1,1,1,98506.3650847919,114,A
58,2,3/3/94,22,f,102,Erin punched the monitor,Sensible,edin_semantics,sem_emo_sem_emo,0.819660306588048,1,2,2,1,98507.9293053726,125,A
58,2,3/3/94,22,f,103,The dish served Kate,Non-sensible,edin_semantics,sem_emo_sem_emo,0.890766738040838,1,1,1,1,98509.5640993487,70,A
58,2,3/3/94,22,f,104,Eve typed the message,Sensible,edin_semantics,sem_emo_sem_emo,1.3490055125294,2,1,1,1,98511.6575756546,124,A
58,2,3/3/94,22,f,105,The milk sniffed Phil,Non-sensible,edin_semantics,sem_emo_sem_emo,10.8529522884637,1,1,1,1,98523.2540211829,18,A
58,2,3/3/94,22,f,106,Dan brushed the hair,Sensible,edin_semantics,sem_emo_sem_emo,1.05565223471785,1,2,2,1,98525.0534411935,147,A
58,2,3/3/94,22,f,107,Kate wore the dress,Sensible,edin_semantics,sem_emo_sem_emo,1.18549911033188,1,1,1,1,98526.9822965964,100,A
58,2,3/3/94,22,f,108,Fred served the dessert,Sensible,edin_semantics,sem_emo_sem_emo,4.48981105763232,2,2,2,1,98532.2160155844,145,A
58,2,3/3/94,22,f,109,The herbs chopped Phil,Non-sensible,edin_semantics,sem_emo_sem_emo,0.902714186202502,1,2,2,1,98533.8625094131,27,A
58,2,3/3/94,22,f,110,Fred chopped the carrots,Sensible,edin_semantics,sem_emo_sem_emo,1.17323190468596,2,1,1,1,98535.7796174969,102,A
58,2,3/3/94,22,f,111,The bowl scrubbed Liz,Non-sensible,edin_semantics,sem_emo_sem_emo,1.60864506213693,1,1,1,1,98538.1317885123,56,A
58,2,3/3/94,22,f,112,Ryan stroked the blanket,Sensible,edin_semantics,sem_emo_sem_emo,1.41929539178091,2,1,1,1,98540.2958388551,116,A
58,2,3/3/94,22,f,113,The mirror kissed Max,Non-sensible,edin_semantics,sem_emo_sem_emo,1.11492443202587,1,2,2,1,98542.1541182968,23,A
58,2,3/3/94,22,f,114,Ian filed the report,Sensible,edin_semantics,sem_emo_sem_emo,1.07847656887316,2,2,2,1,98543.9770534717,99,A
58,2,3/3/94,22,f,115,The house built Kate,Non-sensible,edin_semantics,sem_emo_sem_emo,0.950140282773646,1,1,1,1,98545.6706523566,46,A
58,2,3/3/94,22,f,116,Sara jumped the hedge,Sensible,edin_semantics,sem_emo_sem_emo,1.06798582931515,2,1,1,1,98547.4818831888,92,A
58,2,3/3/94,22,f,117,Hugh dialed the hotline,Sensible,edin_semantics,sem_emo_sem_emo,1.02061168932414,2,1,1,1,98549.2460262836,138,A
58,2,3/3/94,22,f,118,Zoe paid the debt,Sensible,edin_semantics,sem_emo_sem_emo,1.10291572642745,1,1,1,1,98551.0925138262,134,A
58,2,3/3/94,22,f,119,The number dialed Tom,Non-sensible,edin_semantics,sem_emo_sem_emo,1.05617372484994,1,2,2,1,98552.8919681538,63,A
58,2,3/3/94,22,f,120,Ben climbed the stairs,Sensible,edin_semantics,sem_emo_sem_emo,1.16171742803999,1,2,2,1,98554.7972670196,143,A
58,2,3/3/94,22,f,121,The trolley pushed Matt,Non-sensible,edin_semantics,sem_emo_sem_emo,1.30243958604115,2,1,1,1,98556.8437322401,26,A
58,2,3/3/94,22,f,122,John carried the kettle,Sensible,edin_semantics,sem_emo_sem_emo,0.867555936711142,1,2,2,1,98558.4550043169,105,A
58,2,3/3/94,22,f,123,The lever pulled Hugh,Non-sensible,edin_semantics,sem_emo_sem_emo,1.87930165221042,2,2,2,1,98561.0777155011,45,A
58,2,3/3/94,22,f,124,The garden watered Jeff,Non-sensible,edin_semantics,sem_emo_sem_emo,1.46659993559297,2,1,1,1,98563.2887887959,54,A
58,2,3/3/94,22,f,125,The box lifted Kate,Non-sensible,edin_semantics,sem_emo_sem_emo,2.06663944825414,2,2,2,1,98566.0996847967,69,A
58,2,3/3/94,22,f,126,The table wiped Beth,Non-sensible,edin_semantics,sem_emo_sem_emo,1.11482629182865,1,1,1,1,98567.9579414674,40,A
58,2,3/3/94,22,f,127,Anna polished the trophy,Sensible,edin_semantics,sem_emo_sem_emo,1.14897235011449,1,1,1,1,98569.851496542,104,A
58,2,3/3/94,22,f,128,The fruits mixed Jack,Non-sensible,edin_semantics,sem_emo_sem_emo,1.38481931296701,2,1,1,1,98571.9802674032,8,A
58,2,3/3/94,22,f,129,Erin tidied the garage,Sensible,edin_semantics,sem_emo_sem_emo,1.70219834071759,1,2,2,1,98574.4265680304,77,A
58,2,3/3/94,22,f,130,The room tidied Sam,Non-sensible,edin_semantics,sem_emo_sem_emo,1.62056204193505,1,1,1,1,98576.7905142675,2,A
58,2,3/3/94,22,f,131,The spoon licked Will,Non-sensible,edin_semantics,sem_emo_sem_emo,1.22058776364429,2,2,2,1,98578.7546728852,21,A
58,2,3/3/94,22,f,132,The juice drank Matt,Non-sensible,edin_semantics,sem_emo_sem_emo,1.06684310523269,2,1,1,1,98580.5658671554,60,A
58,2,3/3/94,22,f,133,The potatoes mashed Will,Non-sensible,edin_semantics,sem_emo_sem_emo,1.06733989996428,2,1,1,1,98582.37707233,28,A
58,2,3/3/94,22,f,134,Josh taught the rules,Sensible,edin_semantics,sem_emo_sem_emo,1.04397451176192,2,1,1,1,98584.1647376449,90,A
58,2,3/3/94,22,f,135,The tree hugged Amy,Non-sensible,edin_semantics,sem_emo_sem_emo,1.19683975692897,2,2,2,1,98586.1053166337,11,A
58,2,3/3/94,22,f,136,The bucket lent Max,Non-sensible,edin_semantics,sem_emo_sem_emo,1.34951192884182,1,2,2,1,98588.1987951846,19,A
58,2,3/3/94,22,f,137,Tom whisked the cream,Sensible,edin_semantics,sem_emo_sem_emo,2.06734663507086,2,2,2,1,98591.0097255025,137,A
58,2,3/3/94,22,f,138,The photo took Beth,Non-sensible,edin_semantics,sem_emo_sem_emo,1.06753265247971,1,2,2,1,98592.8209098303,53,A
58,2,3/3/94,22,f,139,The bike kicked Matt,Non-sensible,edin_semantics,sem_emo_sem_emo,2.84361774323042,2,2,2,1,98596.4080916925,39,A
58,2,3/3/94,22,f,140,Andy pulled the rope,Sensible,edin_semantics,sem_emo_sem_emo,1.3015094990842,2,1,1,1,98598.4545030321,148,A
58,2,3/3/94,22,f,141,The wine stored Leo,Non-sensible,edin_semantics,sem_emo_sem_emo,1.70319385449693,1,1,1,1,98600.9008113566,52,A
58,2,3/3/94,22,f,142,The garlic crushed Erin,Non-sensible,edin_semantics,sem_emo_sem_emo,2.49066641693935,2,1,1,1,98604.1350944904,6,A
58,2,3/3/94,22,f,143,Rob measured the curtains,Sensible,edin_semantics,sem_emo_sem_emo,5.0661352769821,2,1,1,1,98609.9450806097,126,A
58,2,3/3/94,22,f,144,The lorry dented Lily,Non-sensible,edin_semantics,sem_emo_sem_emo,1.12487668330141,2,2,2,1,98611.8151147471,71,A
58,2,3/3/94,22,f,145,Jack posted the gift,Sensible,edin_semantics,sem_emo_sem_emo,2.50237108032161,2,2,2,1,98615.0611731027,111,A
58,2,3/3/94,22,f,146,The picture painted Ryan,Non-sensible,edin_semantics,sem_emo_sem_emo,1.16100639259093,1,2,2,1,98616.9664604226,35,A
58,2,3/3/94,22,f,147,The letter typed Phil,Non-sensible,edin_semantics,sem_emo_sem_emo,0.937527341360692,1,2,2,1,98618.6483087812,49,A
58,2,3/3/94,22,f,148,The laptop fixed Jen,Non-sensible,edin_semantics,sem_emo_sem_emo,0.80871254154772,1,2,2,1,98620.2007534987,37,A
58,2,3/3/94,22,f,149,The flour weighed Jen,Non-sensible,edin_semantics,sem_emo_sem_emo,0.902898599990294,2,1,1,1,98621.847307302,64,A
58,2,3/3/94,22,f,150,Liz weighed the sugar,Sensible,edin_semantics,sem_emo_sem_emo,0.866231043866719,1,2,2,1,98623.4585896418,139,A
58,2,3/3/94,22,f,151,Liz labeled the jar,Sensible,edin_semantics,sem_emo_sem_emo,1.81329979462316,1,1,1,1,98634.0907415295,61,B
58,2,3/3/94,22,f,152,The house dusted Alex,Non-sensible,edin_semantics,sem_emo_sem_emo,1.56931841943879,2,2,2,1,98636.407570523,122,B
58,2,3/3/94,22,f,153,Liz scrubbed the bowl,Sensible,edin_semantics,sem_emo_sem_emo,0.784632269278518,2,2,2,1,98637.9365411285,56,B
58,2,3/3/94,22,f,154,The radio got Ben,Non-sensible,edin_semantics,sem_emo_sem_emo,0.749322960837162,1,2,2,1,98639.4301918417,88,B
58,2,3/3/94,22,f,155,The pan washed Beth,Non-sensible,edin_semantics,sem_emo_sem_emo,0.772688669734634,2,2,2,1,98640.9473548327,132,B
58,2,3/3/94,22,f,156,Beth took the photo,Sensible,edin_semantics,sem_emo_sem_emo,0.972914263940766,2,1,1,1,98642.6644672783,53,B
58,2,3/3/94,22,f,157,Luke swallowed the pill,Sensible,edin_semantics,sem_emo_sem_emo,0.961250652660965,1,2,2,1,98644.3698436299,22,B
58,2,3/3/94,22,f,158,Josh ironed the shirt,Sensible,edin_semantics,sem_emo_sem_emo,1.25531592809421,2,1,1,1,98646.3692265653,55,B
58,2,3/3/94,22,f,159,Kate built the house,Sensible,edin_semantics,sem_emo_sem_emo,1.11379421601305,2,2,2,1,98648.2274915747,46,B
58,2,3/3/94,22,f,160,The salt passed Leo,Non-sensible,edin_semantics,sem_emo_sem_emo,0.937882057274692,1,2,2,1,98649.9093043334,118,B
58,2,3/3/94,22,f,161,Tom knitted the scarf,Sensible,edin_semantics,sem_emo_sem_emo,0.866990828697453,1,2,2,1,98651.5205930876,66,B
58,2,3/3/94,22,f,162,The pot scrubbed Josh,Non-sensible,edin_semantics,sem_emo_sem_emo,0.84332075684506,1,1,1,1,98653.1083413406,131,B
58,2,3/3/94,22,f,163,Eve taught the lesson,Sensible,edin_semantics,sem_emo_sem_emo,0.996533982819528,2,1,1,1,98654.8489830622,15,B
58,2,3/3/94,22,f,164,The opera watched Adam,Non-sensible,edin_semantics,sem_emo_sem_emo,0.972816444453201,1,2,2,1,98656.5661266175,108,B
58,2,3/3/94,22,f,165,Jake dusted the shelf,Sensible,edin_semantics,sem_emo_sem_emo,1.39625200610317,2,1,1,1,98658.7066188196,47,B
58,2,3/3/94,22,f,166,The button pushed Ian,Non-sensible,edin_semantics,sem_emo_sem_emo,0.878801008861046,1,1,1,1,98660.3296686838,101,B
58,2,3/3/94,22,f,167,Carl brushed the teeth,Sensible,edin_semantics,sem_emo_sem_emo,0.902532338164747,2,2,2,1,98661.9761865665,72,B
58,2,3/3/94,22,f,168,Amy hugged the tree,Sensible,edin_semantics,sem_emo_sem_emo,0.984561197808944,1,1,1,1,98663.7050322195,11,B
58,2,3/3/94,22,f,169,The ribbon cut Lucy,Non-sensible,edin_semantics,sem_emo_sem_emo,1.20812107037636,2,1,1,1,98665.657428765,95,B
58,2,3/3/94,22,f,170,The bed sold Jay,Non-sensible,edin_semantics,sem_emo_sem_emo,0.90273856089334,1,1,1,1,98667.3039780782,113,B
58,2,3/3/94,22,f,171,The carrots grated Tom,Non-sensible,edin_semantics,sem_emo_sem_emo,1.12611434039718,1,2,2,1,98669.1739868787,140,B
58,2,3/3/94,22,f,172,Mary iced the cake,Sensible,edin_semantics,sem_emo_sem_emo,0.902277686764137,1,2,2,1,98670.8205371541,44,B
58,2,3/3/94,22,f,173,The carrots chopped Fred,Non-sensible,edin_semantics,sem_emo_sem_emo,0.80860349687282,2,2,2,1,98672.3730213202,102,B
58,2,3/3/94,22,f,174,Jen fixed the laptop,Sensible,edin_semantics,sem_emo_sem_emo,1.06706889186171,1,1,1,1,98674.1842127038,37,B
58,2,3/3/94,22,f,175,The stairs climbed Ben,Non-sensible,edin_semantics,sem_emo_sem_emo,1.11428587923001,1,1,1,1,98676.0424741853,143,B
58,2,3/3/94,22,f,176,Leo stored the wine,Sensible,edin_semantics,sem_emo_sem_emo,1.45514832000481,2,2,2,1,98678.2418104239,52,B
58,2,3/3/94,22,f,177,Kate lifted the box,Sensible,edin_semantics,sem_emo_sem_emo,0.985079801466782,1,1,1,1,98679.9706711508,69,B
58,2,3/3/94,22,f,178,The church described Erin,Non-sensible,edin_semantics,sem_emo_sem_emo,0.926076367206406,1,1,1,1,98681.6407555129,117,B
58,2,3/3/94,22,f,179,Ryan entered the room,Sensible,edin_semantics,sem_emo_sem_emo,0.855520611366956,1,2,2,1,98683.2402930993,58,B
58,2,3/3/94,22,f,180,The beer drank Jack,Non-sensible,edin_semantics,sem_emo_sem_emo,0.726322230868391,1,1,1,1,98684.7104119708,135,B
58,2,3/3/94,22,f,181,Sam tidied the room,Sensible,edin_semantics,sem_emo_sem_emo,0.914398644250468,2,2,2,1,98686.3687102067,2,B
58,2,3/3/94,22,f,182,The rope pulled Emma,Non-sensible,edin_semantics,sem_emo_sem_emo,0.890818053187104,1,2,2,1,98688.0035170116,120,B
58,2,3/3/94,22,f,183,The problem solved Phil,Non-sensible,edin_semantics,sem_emo_sem_emo,1.16153782502806,2,1,1,1,98689.9088293476,109,B
58,2,3/3/94,22,f,184,The candy sucked Sam,Non-sensible,edin_semantics,sem_emo_sem_emo,1.07900735987641,2,1,2,0,98691.7318296286,87,B
58,2,3/3/94,22,f,185,Jon jumped the fence,Sensible,edin_semantics,sem_emo_sem_emo,0.926580859202659,1,1,1,1,98693.4018540161,17,B
58,2,3/3/94,22,f,186,Jen weighed the flour,Sensible,edin_semantics,sem_emo_sem_emo,0.832007692137267,1,2,2,1,98694.9778539879,64,B
58,2,3/3/94,22,f,187,Joe solved the puzzle,Sensible,edin_semantics,sem_emo_sem_emo,1.11463802939397,2,2,2,1,98696.8360936604,34,B
58,2,3/3/94,22,f,188,John described the pen,Sensible,edin_semantics,sem_emo_sem_emo,0.797032894290169,2,2,2,1,98698.3768234515,42,B
58,2,3/3/94,22,f,189,The lemon squeezed Jay,Non-sensible,edin_semantics,sem_emo_sem_emo,2.06735240801936,2,2,2,1,98701.1877063029,76,B
58,2,3/3/94,22,f,190,Lily dented the lorry,Sensible,edin_semantics,sem_emo_sem_emo,2.04354603032698,2,1,1,1,98703.9751070241,71,B
58,2,3/3/94,22,f,191,The party cancelled Phil,Non-sensible,edin_semantics,sem_emo_sem_emo,0.949774662367417,1,2,2,1,98705.6686549146,82,B
58,2,3/3/94,22,f,192,The plate licked Jane,Non-sensible,edin_semantics,sem_emo_sem_emo,0.855646012743819,1,2,2,1,98707.2682162343,96,B
58,2,3/3/94,22,f,193,Max kissed the mirror,Sensible,edin_semantics,sem_emo_sem_emo,1.02037692254817,2,1,1,1,98709.0323644607,23,B
58,2,3/3/94,22,f,194,The hair trimmed Bill,Non-sensible,edin_semantics,sem_emo_sem_emo,0.820246261369903,1,1,1,1,98710.5965824756,107,B
58,2,3/3/94,22,f,195,The cream whisked Tom,Non-sensible,edin_semantics,sem_emo_sem_emo,1.96092287718784,2,1,1,1,98713.3016448428,137,B
58,2,3/3/94,22,f,196,Ben chewed the toffee,Sensible,edin_semantics,sem_emo_sem_emo,0.902922333247261,1,1,1,1,98714.9481944767,31,B
58,2,3/3/94,22,f,197,Will licked the spoon,Sensible,edin_semantics,sem_emo_sem_emo,0.902736957286834,1,1,1,1,98716.5947296782,21,B
58,2,3/3/94,22,f,198,Tim pulled the handle,Sensible,edin_semantics,sem_emo_sem_emo,1.79647355923953,2,1,1,1,98719.135146447,73,B
58,2,3/3/94,22,f,199,The desk wiped Lucy,Non-sensible,edin_semantics,sem_emo_sem_emo,0.855775583491777,1,1,1,1,98720.7346702425,115,B
58,2,3/3/94,22,f,200,The dessert served Fred,Non-sensible,edin_semantics,sem_emo_sem_emo,1.06705959100509,2,1,1,1,98722.5458706063,145,B
58,2,3/3/94,22,f,201,The dress wore Kate,Non-sensible,edin_semantics,sem_emo_sem_emo,0.938131577160675,1,2,2,1,98724.227715437,100,B
58,2,3/3/94,22,f,202,Matt pushed the trolley,Sensible,edin_semantics,sem_emo_sem_emo,1.20803607966809,2,2,2,1,98726.180106851,26,B
58,2,3/3/94,22,f,203,Ryan painted the picture,Sensible,edin_semantics,sem_emo_sem_emo,0.855656275773072,1,1,1,1,98727.7796021024,35,B
58,2,3/3/94,22,f,204,The curtains measured Rob,Non-sensible,edin_semantics,sem_emo_sem_emo,1.11462936997123,2,2,2,1,98729.6378151552,126,B
58,2,3/3/94,22,f,205,Jeff watered the garden,Sensible,edin_semantics,sem_emo_sem_emo,1.04410664825991,2,2,2,1,98731.4254987511,54,B
58,2,3/3/94,22,f,206,The rope pulled Andy,Non-sensible,edin_semantics,sem_emo_sem_emo,1.02059918126906,2,2,2,1,98733.1896639756,148,B
58,2,3/3/94,22,f,207,Phil passed the towels,Sensible,edin_semantics,sem_emo_sem_emo,1.07901441570721,1,1,1,1,98735.0126517485,43,B
58,2,3/3/94,22,f,208,Kate served the dish,Sensible,edin_semantics,sem_emo_sem_emo,1.31413783504104,2,2,2,1,98737.0708258018,70,B
58,2,3/3/94,22,f,209,The socks knitted Ryan,Non-sensible,edin_semantics,sem_emo_sem_emo,1.02017647278262,1,1,1,1,98738.8349996857,141,B
58,2,3/3/94,22,f,210,The garage tidied Erin,Non-sensible,edin_semantics,sem_emo_sem_emo,1.09074281234643,2,1,1,1,98740.6697296462,77,B
58,2,3/3/94,22,f,211,The sugar weighed Liz,Non-sensible,edin_semantics,sem_emo_sem_emo,1.83187523491506,2,1,1,1,98743.2454204442,139,B
58,2,3/3/94,22,f,212,Rob stroked the fur,Sensible,edin_semantics,sem_emo_sem_emo,2.31436394237971,2,1,1,1,98746.3032872481,41,B
58,2,3/3/94,22,f,213,The door kicked Max,Non-sensible,edin_semantics,sem_emo_sem_emo,1.18541732680751,1,2,2,1,98748.2321134655,114,B
58,2,3/3/94,22,f,214,The hospital visited Tom,Non-sensible,edin_semantics,sem_emo_sem_emo,1.04414000309771,1,1,1,1,98750.0198368307,91,B
58,2,3/3/94,22,f,215,Jack mixed the fruits,Sensible,edin_semantics,sem_emo_sem_emo,1.07925720048661,2,2,2,1,98751.8428053604,8,B
58,2,3/3/94,22,f,216,The debt paid Zoe,Non-sensible,edin_semantics,sem_emo_sem_emo,1.49091048457194,2,2,2,1,98754.0773822734,134,B
58,2,3/3/94,22,f,217,The kettle carried John,Non-sensible,edin_semantics,sem_emo_sem_emo,1.42019629325659,1,1,1,1,98756.2414290882,105,B
58,2,3/3/94,22,f,218,Amy measured the thread,Sensible,edin_semantics,sem_emo_sem_emo,0.938109126771451,1,1,1,1,98757.9232707117,51,B
58,2,3/3/94,22,f,219,Ewan wrote the story,Sensible,edin_semantics,sem_emo_sem_emo,0.938573208099115,1,2,2,1,98759.6051187496,74,B
58,2,3/3/94,22,f,220,The steak ate Mike,Non-sensible,edin_semantics,sem_emo_sem_emo,1.52610080603336,2,2,2,1,98761.874993746,142,B
58,2,3/3/94,22,f,221,The invite mailed Ian,Non-sensible,edin_semantics,sem_emo_sem_emo,0.961698056562454,1,1,1,1,98763.5804018489,89,B
58,2,3/3/94,22,f,222,The box labeled Ian,Non-sensible,edin_semantics,sem_emo_sem_emo,0.761537889178726,1,2,2,1,98765.0857642813,136,B
58,2,3/3/94,22,f,223,The report wrote Alex,Non-sensible,edin_semantics,sem_emo_sem_emo,1.60820856269856,2,1,1,1,98767.4380273433,149,B
58,2,3/3/94,22,f,224,The radio fixed Luke,Non-sensible,edin_semantics,sem_emo_sem_emo,0.9385000840266,2,2,2,1,98769.1198333669,112,B
58,2,3/3/94,22,f,225,Liz sliced the tomato,Sensible,edin_semantics,sem_emo_sem_emo,1.16175302791817,2,1,1,1,98771.0251703984,3,B
58,2,3/3/94,22,f,226,The portrait painted Jay,Non-sensible,edin_semantics,sem_emo_sem_emo,0.726383167610038,1,2,2,1,98772.4953158896,110,B
58,2,3/3/94,22,f,227,The report filed Ian,Non-sensible,edin_semantics,sem_emo_sem_emo,0.832431683520554,1,1,1,1,98774.0712552454,99,B
58,2,3/3/94,22,f,228,Joe wore the jumper,Sensible,edin_semantics,sem_emo_sem_emo,1.25588263969985,2,1,1,1,98776.0706622348,25,B
58,2,3/3/94,22,f,229,Phil sniffed the milk,Sensible,edin_semantics,sem_emo_sem_emo,0.926048464592895,2,2,2,1,98777.7407142042,18,B
58,2,3/3/94,22,f,230,Mary visited the museum,Sensible,edin_semantics,sem_emo_sem_emo,0.92624602788419,2,2,2,1,98779.4108328833,16,B
58,2,3/3/94,22,f,231,Hugh pulled the lever,Sensible,edin_semantics,sem_emo_sem_emo,0.855868912898586,1,1,1,1,98781.0103079293,45,B
58,2,3/3/94,22,f,232,The monitor punched Erin,Non-sensible,edin_semantics,sem_emo_sem_emo,0.985036504309392,1,1,1,1,98782.7391968795,125,B
58,2,3/3/94,22,f,233,The rose kissed Hugh,Non-sensible,edin_semantics,sem_emo_sem_emo,0.914880365147837,2,2,2,1,98784.3975275081,98,B
58,2,3/3/94,22,f,234,Lara filed the papers,Sensible,edin_semantics,sem_emo_sem_emo,0.902797252580058,2,2,2,1,98786.0440941402,24,B
58,2,3/3/94,22,f,235,The shoes counted Lucy,Non-sensible,edin_semantics,sem_emo_sem_emo,0.938113616852206,2,1,1,1,98787.7259219728,123,B
58,2,3/3/94,22,f,236,The fat chewed Adam,Non-sensible,edin_semantics,sem_emo_sem_emo,1.20856879500207,2,2,2,1,98789.6782251888,106,B
58,2,3/3/94,22,f,237,Jon polished the coins,Sensible,edin_semantics,sem_emo_sem_emo,0.855812786961906,1,1,1,1,98791.2777695103,29,B
58,2,3/3/94,22,f,238,Max lent the bucket,Sensible,edin_semantics,sem_emo_sem_emo,0.832185050108819,1,1,1,1,98792.8537515218,19,B
58,2,3/3/94,22,f,239,Jon trimmed the bushes,Sensible,edin_semantics,sem_emo_sem_emo,0.761529550465639,2,2,2,1,98794.3592210746,32,B
58,2,3/3/94,22,f,240,The wallet carried Leo,Non-sensible,edin_semantics,sem_emo_sem_emo,0.926297984464327,1,2,2,1,98796.0292679125,150,B
58,2,3/3/94,22,f,241,The bath cleaned Jack,Non-sensible,edin_semantics,sem_emo_sem_emo,1.18478422623593,2,2,2,1,98797.9580732832,80,B
58,2,3/3/94,22,f,242,The hedge jumped Sara,Non-sensible,edin_semantics,sem_emo_sem_emo,1.05584466649452,2,2,2,1,98799.7575471747,92,B
58,2,3/3/94,22,f,243,The turnip mashed Ella,Non-sensible,edin_semantics,sem_emo_sem_emo,1.18477717040514,1,1,1,1,98801.6863782029,103,B
58,2,3/3/94,22,f,244,Phil chopped the herbs,Sensible,edin_semantics,sem_emo_sem_emo,1.23175810811517,2,1,1,1,98803.6622193543,27,B
58,2,3/3/94,22,f,245,Erin posted the card,Sensible,edin_semantics,sem_emo_sem_emo,1.07930274266982,2,2,2,1,98805.4851641507,36,B
58,2,3/3/94,22,f,246,The hotline dialed Hugh,Non-sensible,edin_semantics,sem_emo_sem_emo,0.85582946438808,1,2,2,1,98807.0847100759,138,B
58,2,3/3/94,22,f,247,The trophy polished Anna,Non-sensible,edin_semantics,sem_emo_sem_emo,0.8082830979547,1,2,2,1,98808.6371714708,104,B
58,2,3/3/94,22,f,248,Leah sucked the lolly,Sensible,edin_semantics,sem_emo_sem_emo,1.0075455710612,2,2,2,1,98810.3895345332,12,B
58,2,3/3/94,22,f,249,Erin crushed the garlic,Sensible,edin_semantics,sem_emo_sem_emo,0.949307373855845,1,2,1,0,98812.083142719,6,B
58,2,3/3/94,22,f,250,The plants watered Luke,Non-sensible,edin_semantics,sem_emo_sem_emo,0.89055634594115,1,1,1,1,98813.7179578626,129,B
58,2,3/3/94,22,f,251,Tom dialed the number,Sensible,edin_semantics,sem_emo_sem_emo,1.57293485414993,1,1,1,1,98816.0348753748,63,B
58,2,3/3/94,22,f,252,The pillow hugged Kate,Non-sensible,edin_semantics,sem_emo_sem_emo,1.00810426467797,2,2,2,1,98817.7872910351,86,B
58,2,3/3/94,22,f,253,Mike paid the bill,Sensible,edin_semantics,sem_emo_sem_emo,1.71443283297413,2,1,1,1,98820.2453476409,59,B
58,2,3/3/94,22,f,254,The office entered Joe,Non-sensible,edin_semantics,sem_emo_sem_emo,1.00906032993225,1,1,1,1,98821.9977562454,133,B
58,2,3/3/94,22,f,255,Andy grated the cheese,Sensible,edin_semantics,sem_emo_sem_emo,0.938061018823646,2,1,1,1,98823.6795866437,65,B
58,2,3/3/94,22,f,256,Luke climbed the hill,Sensible,edin_semantics,sem_emo_sem_emo,0.902938369239564,1,2,2,1,98825.3261773297,68,B
58,2,3/3/94,22,f,257,Mark washed the dishes,Sensible,edin_semantics,sem_emo_sem_emo,0.93801162802265,1,1,1,1,98827.0080000308,57,B
58,2,3/3/94,22,f,258,Jon cut the paper,Sensible,edin_semantics,sem_emo_sem_emo,1.43221205470036,2,2,2,1,98829.1837803738,20,B
58,2,3/3/94,22,f,259,Will mashed the potatoes,Sensible,edin_semantics,sem_emo_sem_emo,1.30247486519511,2,2,2,1,98831.2302282754,28,B
58,2,3/3/94,22,f,260,Matt offered the money,Sensible,edin_semantics,sem_emo_sem_emo,0.925950965814991,1,1,1,1,98832.9003110339,9,B
58,2,3/3/94,22,f,261,The rules taught Josh,Non-sensible,edin_semantics,sem_emo_sem_emo,0.808642303949455,1,2,2,1,98834.4527567136,90,B
58,2,3/3/94,22,f,262,The internet searched Max,Non-sensible,edin_semantics,sem_emo_sem_emo,0.949575174759957,1,1,1,1,98836.1463988957,85,B
58,2,3/3/94,22,f,263,The gum swallowed Owen,Non-sensible,edin_semantics,sem_emo_sem_emo,0.914459580977564,1,1,1,1,98837.8047022631,97,B
58,2,3/3/94,22,f,264,Carl sold the sofa,Sensible,edin_semantics,sem_emo_sem_emo,0.761560660263058,2,2,2,1,98839.3101140864,38,B
58,2,3/3/94,22,f,265,The nuts mixed Liam,Non-sensible,edin_semantics,sem_emo_sem_emo,0.902964668232016,2,1,1,1,98840.9566685311,83,B
58,2,3/3/94,22,f,266,The blanket stroked Ryan,Non-sensible,edin_semantics,sem_emo_sem_emo,0.808434156890144,1,2,2,1,98842.5091180595,116,B
58,2,3/3/94,22,f,267,Matt drank the juice,Sensible,edin_semantics,sem_emo_sem_emo,1.14986683719326,2,2,2,1,98844.4026728134,60,B
58,2,3/3/94,22,f,268,The donut iced Joe,Non-sensible,edin_semantics,sem_emo_sem_emo,0.961735260047135,2,1,1,1,98846.1080279975,119,B
58,2,3/3/94,22,f,269,The ticket took Tim,Non-sensible,edin_semantics,sem_emo_sem_emo,1.02046672404686,1,2,2,1,98847.8721919392,128,B
58,2,3/3/94,22,f,270,Lily got the kettle,Sensible,edin_semantics,sem_emo_sem_emo,1.53762875289249,2,1,1,1,98850.1538485716,13,B
58,2,3/3/94,22,f,271,The message typed Eve,Non-sensible,edin_semantics,sem_emo_sem_emo,1.16148330269789,2,2,2,1,98852.0591509653,124,B
58,2,3/3/94,22,f,272,The onion sliced Liam,Non-sensible,edin_semantics,sem_emo_sem_emo,1.36120119769475,2,2,2,1,98854.1644300748,78,B
58,2,3/3/94,22,f,273,Tim cleaned the floor,Sensible,edin_semantics,sem_emo_sem_emo,1.05550502438564,2,1,1,1,98855.963833408,5,B
58,2,3/3/94,22,f,274,Bill counted the sheets,Sensible,edin_semantics,sem_emo_sem_emo,0.878985743358498,1,2,2,1,98857.5868492759,48,B
58,2,3/3/94,22,f,275,The gift posted Jack,Non-sensible,edin_semantics,sem_emo_sem_emo,2.13761278105085,2,1,1,1,98860.468354272,111,B
58,2,3/3/94,22,f,276,Ian cancelled the plans,Sensible,edin_semantics,sem_emo_sem_emo,2.10236601295765,2,1,1,1,98863.3145352067,7,B
58,2,3/3/94,22,f,277,Tim ate the ham,Sensible,edin_semantics,sem_emo_sem_emo,1.51458729154547,2,1,1,1,98865.5726500551,67,B
58,2,3/3/94,22,f,278,The perfume sniffed Tim,Non-sensible,edin_semantics,sem_emo_sem_emo,1.76114693192358,2,1,1,1,98868.0777892667,93,B
58,2,3/3/94,22,f,279,Dan carried the folder,Sensible,edin_semantics,sem_emo_sem_emo,1.10262739946484,1,2,2,1,98869.9242732814,30,B
58,2,3/3/94,22,f,280,Jane punched the wall,Sensible,edin_semantics,sem_emo_sem_emo,5.8423406376096,2,2,2,1,98876.5104708549,50,B
58,2,3/3/94,22,f,281,Sean read the book,Sensible,edin_semantics,sem_emo_sem_emo,1.43158985859191,2,2,2,1,98878.6862662717,4,B
58,2,3/3/94,22,f,282,The crate lifted Amy,Non-sensible,edin_semantics,sem_emo_sem_emo,0.855828181505785,1,2,2,1,98880.2858343265,144,B
58,2,3/3/94,22,f,283,The car lent Fred,Non-sensible,edin_semantics,sem_emo_sem_emo,1.19627529034915,2,2,2,1,98882.2264348035,94,B
58,2,3/3/94,22,f,284,The hair brushed Dan,Non-sensible,edin_semantics,sem_emo_sem_emo,2.46638601558516,1,1,1,1,98885.4371440814,147,B
58,2,3/3/94,22,f,285,Rob mailed the parcel,Sensible,edin_semantics,sem_emo_sem_emo,1.33816133995424,2,2,2,1,98887.5188605601,14,B
58,2,3/3/94,22,f,286,The shed built Rose,Non-sensible,edin_semantics,sem_emo_sem_emo,1.03192635763844,1,1,1,1,98889.2947605956,121,B
58,2,3/3/94,22,f,287,Beth wiped the table,Sensible,edin_semantics,sem_emo_sem_emo,5.07814718979353,2,2,2,1,98895.1165504806,40,B
58,2,3/3/94,22,f,288,Dan whisked the eggs,Sensible,edin_semantics,sem_emo_sem_emo,1.19670120603405,1,2,2,1,98897.0571121505,62,B
58,2,3/3/94,22,f,289,The poster read Luke,Non-sensible,edin_semantics,sem_emo_sem_emo,2.05517789036094,1,1,1,1,98899.8562746232,79,B
58,2,3/3/94,22,f,290,Matt kicked the bike,Sensible,edin_semantics,sem_emo_sem_emo,1.12588342225354,2,1,1,1,98901.7262747644,39,B
58,2,3/3/94,22,f,291,Ella watched the movie,Sensible,edin_semantics,sem_emo_sem_emo,0.973213174642297,1,1,1,1,98903.4433917,33,B
58,2,3/3/94,22,f,292,Jen searched the room,Sensible,edin_semantics,sem_emo_sem_emo,1.10277268546633,1,2,2,1,98905.289899448,10,B
58,2,3/3/94,22,f,293,The bowl dented Ian,Non-sensible,edin_semantics,sem_emo_sem_emo,0.879492159685469,1,2,2,1,98906.9128967142,146,B
58,2,3/3/94,22,f,294,Josh squeezed the ball,Sensible,edin_semantics,sem_emo_sem_emo,1.05547840466897,1,1,1,1,98908.7124103749,1,B
58,2,3/3/94,22,f,295,The sweets offered Tom,Non-sensible,edin_semantics,sem_emo_sem_emo,1.03176503565919,2,2,2,1,98910.488330295,84,B
58,2,3/3/94,22,f,296,Phil typed the letter,Sensible,edin_semantics,sem_emo_sem_emo,1.56155540046166,1,1,1,1,98912.7934629639,49,B
58,2,3/3/94,22,f,297,The ice crushed Josh,Non-sensible,edin_semantics,sem_emo_sem_emo,1.25514883315191,1,1,1,1,98914.7928539173,81,B
58,2,3/3/94,22,f,298,The trousers ironed Eve,Non-sensible,edin_semantics,sem_emo_sem_emo,0.926000035920879,2,2,2,1,98916.4629568812,130,B
58,2,3/3/94,22,f,299,Ryan carried the gun,Sensible,edin_semantics,sem_emo_sem_emo,1.11434841956361,1,1,1,1,98918.321180197,75,B
58,2,3/3/94,22,f,300,The rice stored Fred,Non-sensible,edin_semantics,sem_emo_sem_emo,1.07920267812733,2,1,1,1,98920.1441917031,127,B
