subject_column,AssignedList_column,subject_dob_column,subject_age_column,subject_gender_column,trialnum_column,Stim_column,Type_column,Experiment_column,OrderGroup_column,ReactionTime_column,StimSide_column,StimPosition_column,Response_column,Valid_column,TrialEndSecs_column,PairID_column,List_column
6,2,12/11/95,20,f,1,Liz weighed the sugar,Sensible,edin_semantics,sem_emo_sem_emo,1.11945472180378,2,2,2,1,256052.62946188,139,A
6,2,12/11/95,20,f,2,The puzzle solved Joe,Non-sensible,edin_semantics,sem_emo_sem_emo,0.771034532750491,2,1,1,1,256054.146664751,34,A
6,2,12/11/95,20,f,3,The card posted Erin,Non-sensible,edin_semantics,sem_emo_sem_emo,0.971196625498123,2,1,1,1,256055.863781476,36,A
6,2,12/11/95,20,f,4,Rose built the shed,Sensible,edin_semantics,sem_emo_sem_emo,0.771904650726356,1,2,2,1,256057.380966386,121,A
6,2,12/11/95,20,f,5,The dishes washed Mark,Non-sensible,edin_semantics,sem_emo_sem_emo,2.14980493704206,2,2,1,0,256060.274211281,57,A
6,2,12/11/95,20,f,6,Zoe paid the debt,Sensible,edin_semantics,sem_emo_sem_emo,0.844569925044198,2,1,1,1,256061.861970681,134,A
6,2,12/11/95,20,f,7,The toffee chewed Ben,Non-sensible,edin_semantics,sem_emo_sem_emo,1.35052380268462,2,2,1,0,256063.955468754,31,A
6,2,12/11/95,20,f,8,Phil cancelled the party,Sensible,edin_semantics,sem_emo_sem_emo,0.914715930382954,2,1,1,1,256065.61382798,82,A
6,2,12/11/95,20,f,9,Liam mixed the nuts,Sensible,edin_semantics,sem_emo_sem_emo,1.00952030296321,1,2,2,1,256067.366202924,83,A
6,2,12/11/95,20,f,10,Ben got the radio,Sensible,edin_semantics,sem_emo_sem_emo,0.738682372641051,2,1,1,1,256068.848086318,88,A
6,2,12/11/95,20,f,11,The cheese grated Andy,Non-sensible,edin_semantics,sem_emo_sem_emo,0.703645771864103,1,2,2,1,256070.294717906,65,A
6,2,12/11/95,20,f,12,Dan brushed the hair,Sensible,edin_semantics,sem_emo_sem_emo,1.91509085404687,2,2,1,0,256072.952767636,147,A
6,2,12/11/95,20,f,13,The bushes trimmed Jon,Non-sensible,edin_semantics,sem_emo_sem_emo,1.45573238725774,1,1,2,0,256075.152099059,32,A
6,2,12/11/95,20,f,14,Andy pulled the rope,Sensible,edin_semantics,sem_emo_sem_emo,0.809232487314148,1,1,2,0,256076.704579713,148,A
6,2,12/11/95,20,f,15,Luke read the poster,Sensible,edin_semantics,sem_emo_sem_emo,1.24448839755496,2,2,1,0,256078.692223268,79,A
6,2,12/11/95,20,f,16,The letter typed Phil,Non-sensible,edin_semantics,sem_emo_sem_emo,1.53828230436193,1,2,2,1,256080.973894536,49,A
6,2,12/11/95,20,f,17,Eve typed the message,Sensible,edin_semantics,sem_emo_sem_emo,1.24456152212224,2,1,1,1,256082.961499284,124,A
6,2,12/11/95,20,f,18,The laptop fixed Jen,Non-sensible,edin_semantics,sem_emo_sem_emo,1.56210006005131,1,2,2,1,256085.26669613,37,A
6,2,12/11/95,20,f,19,Ian labeled the box,Sensible,edin_semantics,sem_emo_sem_emo,1.0679112165526,2,1,1,1,256087.077917413,136,A
6,2,12/11/95,20,f,20,The book read Sean,Non-sensible,edin_semantics,sem_emo_sem_emo,1.62115775400889,1,1,1,1,256089.442027308,4,A
6,2,12/11/95,20,f,21,Max kicked the door,Sensible,edin_semantics,sem_emo_sem_emo,1.57266527431784,1,1,1,1,256091.758866993,114,A
6,2,12/11/95,20,f,22,Jack cleaned the bath,Sensible,edin_semantics,sem_emo_sem_emo,1.37307919771411,1,1,1,1,256093.875902511,80,A
6,2,12/11/95,20,f,23,The kettle got Lily,Non-sensible,edin_semantics,sem_emo_sem_emo,0.867312621528981,2,2,2,1,256095.487191337,13,A
6,2,12/11/95,20,f,24,Jack drank the beer,Sensible,edin_semantics,sem_emo_sem_emo,1.32601136379526,1,2,2,1,256097.557137854,135,A
6,2,12/11/95,20,f,25,The shelf dusted Jake,Non-sensible,edin_semantics,sem_emo_sem_emo,1.65621712603024,2,2,2,1,256099.956401413,47,A
6,2,12/11/95,20,f,26,Tom whisked the cream,Sensible,edin_semantics,sem_emo_sem_emo,1.75036786778946,2,2,2,1,256102.449792942,137,A
6,2,12/11/95,20,f,27,Sam sucked the candy,Sensible,edin_semantics,sem_emo_sem_emo,1.22059976242599,1,2,2,1,256104.41388013,87,A
6,2,12/11/95,20,f,28,Ben climbed the stairs,Sensible,edin_semantics,sem_emo_sem_emo,1.3375781919458,2,2,2,1,256106.495637543,143,A
6,2,12/11/95,20,f,29,Sara jumped the hedge,Sensible,edin_semantics,sem_emo_sem_emo,1.51500753054279,2,1,1,1,256108.753757255,92,A
6,2,12/11/95,20,f,30,The papers filed Lara,Non-sensible,edin_semantics,sem_emo_sem_emo,1.43273760346347,1,1,1,1,256110.929576891,24,A
6,2,12/11/95,20,f,31,The house built Kate,Non-sensible,edin_semantics,sem_emo_sem_emo,1.32697769830702,1,1,1,1,256112.999562856,46,A
6,2,12/11/95,20,f,32,The movie watched Ella,Non-sensible,edin_semantics,sem_emo_sem_emo,1.26818107176223,1,2,2,1,256115.010735517,33,A
6,2,12/11/95,20,f,33,The shirt ironed Josh,Non-sensible,edin_semantics,sem_emo_sem_emo,1.02061855670763,1,2,2,1,256116.774979089,55,A
6,2,12/11/95,20,f,34,The bowl scrubbed Liz,Non-sensible,edin_semantics,sem_emo_sem_emo,1.22106192237698,2,1,1,1,256118.739003415,56,A
6,2,12/11/95,20,f,35,The jar labeled Liz,Non-sensible,edin_semantics,sem_emo_sem_emo,1.04458480651374,1,2,2,1,256120.526679235,61,A
6,2,12/11/95,20,f,36,The box lifted Kate,Non-sensible,edin_semantics,sem_emo_sem_emo,1.42081413281267,2,2,1,0,256122.69073961,69,A
6,2,12/11/95,20,f,37,Hugh kissed the rose,Sensible,edin_semantics,sem_emo_sem_emo,1.16230891403393,1,1,2,0,256124.596048773,98,A
6,2,12/11/95,20,f,38,Josh crushed the ice,Sensible,edin_semantics,sem_emo_sem_emo,0.856452664040262,1,2,2,1,256126.195560699,81,A
6,2,12/11/95,20,f,39,The bucket lent Max,Non-sensible,edin_semantics,sem_emo_sem_emo,1.18574757661554,2,2,1,0,256128.124456056,19,A
6,2,12/11/95,20,f,40,The potatoes mashed Will,Non-sensible,edin_semantics,sem_emo_sem_emo,0.961967217095662,1,1,2,0,256129.829818651,28,A
6,2,12/11/95,20,f,41,Ryan stroked the blanket,Sensible,edin_semantics,sem_emo_sem_emo,1.03302278919728,2,1,1,1,256131.605719815,116,A
6,2,12/11/95,20,f,42,The plans cancelled Ian,Non-sensible,edin_semantics,sem_emo_sem_emo,2.69101094047073,2,2,1,0,256135.039972828,7,A
6,2,12/11/95,20,f,43,The tomato sliced Liz,Non-sensible,edin_semantics,sem_emo_sem_emo,1.50299714430003,1,2,2,1,256137.286373369,3,A
6,2,12/11/95,20,f,44,The money offered Matt,Non-sensible,edin_semantics,sem_emo_sem_emo,1.13863484165631,2,2,2,1,256139.16813771,9,A
6,2,12/11/95,20,f,45,The flour weighed Jen,Non-sensible,edin_semantics,sem_emo_sem_emo,1.574023210007,1,1,1,1,256141.485105364,64,A
6,2,12/11/95,20,f,46,Liam sliced the onion,Sensible,edin_semantics,sem_emo_sem_emo,1.32619898600387,2,1,1,1,256143.555054446,78,A
6,2,12/11/95,20,f,47,The museum visited Mary,Non-sensible,edin_semantics,sem_emo_sem_emo,1.43270585199934,2,1,1,1,256145.730875044,16,A
6,2,12/11/95,20,f,48,Fred lent the car,Sensible,edin_semantics,sem_emo_sem_emo,1.04477788097574,2,1,1,1,256147.518596727,94,A
6,2,12/11/95,20,f,49,The wall punched Jane,Non-sensible,edin_semantics,sem_emo_sem_emo,0.844679932546569,2,1,1,1,256149.10633977,50,A
6,2,12/11/95,20,f,50,Beth washed the pan,Sensible,edin_semantics,sem_emo_sem_emo,0.715240182064008,2,1,1,1,256150.56468219,132,A
6,2,12/11/95,20,f,51,Fred served the dessert,Sensible,edin_semantics,sem_emo_sem_emo,1.12713600651477,1,2,2,1,256152.434778356,145,A
6,2,12/11/95,20,f,52,The bike kicked Matt,Non-sensible,edin_semantics,sem_emo_sem_emo,1.02053997988696,2,2,2,1,256154.198924428,39,A
6,2,12/11/95,20,f,53,The number dialed Tom,Non-sensible,edin_semantics,sem_emo_sem_emo,0.656290892016841,2,2,2,1,256155.598505822,63,A
6,2,12/11/95,20,f,54,Jane licked the plate,Sensible,edin_semantics,sem_emo_sem_emo,1.05628633775632,1,1,1,1,256157.397974258,96,A
6,2,12/11/95,20,f,55,The spoon licked Will,Non-sensible,edin_semantics,sem_emo_sem_emo,1.10309214206063,2,2,2,1,256159.244451835,21,A
6,2,12/11/95,20,f,56,Erin described the church,Sensible,edin_semantics,sem_emo_sem_emo,0.962561835156521,1,2,2,1,256160.94981411,117,A
6,2,12/11/95,20,f,57,Hugh dialed the hotline,Sensible,edin_semantics,sem_emo_sem_emo,0.880047518119682,1,1,1,1,256162.572880158,138,A
6,2,12/11/95,20,f,58,The bill paid Mike,Non-sensible,edin_semantics,sem_emo_sem_emo,1.10375090443995,2,2,2,1,256164.419359339,59,A
6,2,12/11/95,20,f,59,Ella mashed the turnip,Sensible,edin_semantics,sem_emo_sem_emo,1.26727118430426,1,2,2,1,256166.430546433,103,A
6,2,12/11/95,20,f,60,Anna polished the trophy,Sensible,edin_semantics,sem_emo_sem_emo,0.93836659003864,1,1,1,1,256168.112396279,104,A
6,2,12/11/95,20,f,61,The fruits mixed Jack,Non-sensible,edin_semantics,sem_emo_sem_emo,1.17428594519151,2,1,1,1,256170.029453798,8,A
6,2,12/11/95,20,f,62,The sheets counted Bill,Non-sensible,edin_semantics,sem_emo_sem_emo,0.974410256923875,2,1,1,1,256171.746571485,48,A
6,2,12/11/95,20,f,63,The eggs whisked Dan,Non-sensible,edin_semantics,sem_emo_sem_emo,1.44472169055371,1,1,1,1,256173.934173154,62,A
6,2,12/11/95,20,f,64,Owen swallowed the gum,Sensible,edin_semantics,sem_emo_sem_emo,1.37386945600156,1,2,2,1,256176.051183014,97,A
6,2,12/11/95,20,f,65,The jumper wore Joe,Non-sensible,edin_semantics,sem_emo_sem_emo,1.76216144618229,2,2,1,0,256178.55631841,25,A
6,2,12/11/95,20,f,66,The garlic crushed Erin,Non-sensible,edin_semantics,sem_emo_sem_emo,1.28002885211026,1,1,2,0,256180.579212487,6,A
6,2,12/11/95,20,f,67,The herbs chopped Phil,Non-sensible,edin_semantics,sem_emo_sem_emo,2.03285825895728,2,2,2,1,256183.35486894,27,A
6,2,12/11/95,20,f,68,Joe iced the donut,Sensible,edin_semantics,sem_emo_sem_emo,1.13857165951049,1,2,2,1,256185.236662467,119,A
6,2,12/11/95,20,f,69,Mike ate the steak,Sensible,edin_semantics,sem_emo_sem_emo,1.88002282255911,1,1,1,1,256187.859372194,142,A
6,2,12/11/95,20,f,70,Alex wrote the report,Sensible,edin_semantics,sem_emo_sem_emo,1.03310200746637,1,2,2,1,256189.635330446,149,A
6,2,12/11/95,20,f,71,The room searched Jen,Non-sensible,edin_semantics,sem_emo_sem_emo,0.774133025115589,1,1,2,0,256191.152496754,10,A
6,2,12/11/95,20,f,72,The folder carried Dan,Non-sensible,edin_semantics,sem_emo_sem_emo,1.89187669660896,1,1,1,1,256193.787026358,30,A
6,2,12/11/95,20,f,73,Tim took the ticket,Sensible,edin_semantics,sem_emo_sem_emo,1.38568837137427,2,1,1,1,256195.915772708,128,A
6,2,12/11/95,20,f,74,Lucy cut the ribbon,Sensible,edin_semantics,sem_emo_sem_emo,1.06854496261803,2,2,1,0,256197.726996557,95,A
6,2,12/11/95,20,f,75,Max searched the internet,Sensible,edin_semantics,sem_emo_sem_emo,0.95039365379489,1,2,2,1,256199.420621379,85,A
6,2,12/11/95,20,f,76,The mirror kissed Max,Non-sensible,edin_semantics,sem_emo_sem_emo,0.985555656749057,1,2,2,1,256201.149513401,23,A
6,2,12/11/95,20,f,77,The fur stroked Rob,Non-sensible,edin_semantics,sem_emo_sem_emo,1.0210091957124,1,2,2,1,256202.913661077,41,A
6,2,12/11/95,20,f,78,Josh scrubbed the pot,Sensible,edin_semantics,sem_emo_sem_emo,0.821282963792328,1,2,2,1,256204.477941403,131,A
6,2,12/11/95,20,f,79,The gun carried Ryan,Non-sensible,edin_semantics,sem_emo_sem_emo,0.879897420381894,1,2,2,1,256206.100997188,75,A
6,2,12/11/95,20,f,80,Lucy wiped the desk,Sensible,edin_semantics,sem_emo_sem_emo,0.86842680873815,1,2,2,1,256207.712222191,115,A
6,2,12/11/95,20,f,81,Jay painted the portrait,Sensible,edin_semantics,sem_emo_sem_emo,0.97407927212771,2,1,1,1,256209.429364573,110,A
6,2,12/11/95,20,f,82,Ian pushed the button,Sensible,edin_semantics,sem_emo_sem_emo,0.726697002683068,2,2,2,1,256210.899492554,101,A
6,2,12/11/95,20,f,83,The lesson taught Eve,Non-sensible,edin_semantics,sem_emo_sem_emo,1.35047056287294,2,2,2,1,256212.992973308,15,A
6,2,12/11/95,20,f,84,The cake iced Mary,Non-sensible,edin_semantics,sem_emo_sem_emo,1.11539887514664,2,1,1,1,256214.851254407,44,A
6,2,12/11/95,20,f,85,Eve ironed the trousers,Sensible,edin_semantics,sem_emo_sem_emo,2.19730285878177,1,1,1,1,256217.791562004,130,A
6,2,12/11/95,20,f,86,The fence jumped Jon,Non-sensible,edin_semantics,sem_emo_sem_emo,1.04483657306992,1,2,2,1,256219.579256426,17,A
6,2,12/11/95,20,f,87,The lolly sucked Leah,Non-sensible,edin_semantics,sem_emo_sem_emo,1.3268154131074,2,1,1,1,256221.649220261,12,A
6,2,12/11/95,20,f,88,The floor cleaned Tim,Non-sensible,edin_semantics,sem_emo_sem_emo,0.986080357455648,1,2,2,1,256223.378159109,5,A
6,2,12/11/95,20,f,89,Jay squeezed the lemon,Sensible,edin_semantics,sem_emo_sem_emo,0.644417133211391,2,1,1,1,256224.765875724,76,A
6,2,12/11/95,20,f,90,The teeth brushed Carl,Non-sensible,edin_semantics,sem_emo_sem_emo,0.703817678702762,1,1,1,1,256226.212542592,72,A
6,2,12/11/95,20,f,91,Ian dented the bowl,Sensible,edin_semantics,sem_emo_sem_emo,0.915575785242254,1,1,1,1,256227.870865256,146,A
6,2,12/11/95,20,f,92,Lucy counted the shoes,Sensible,edin_semantics,sem_emo_sem_emo,0.597737372561824,1,2,2,1,256229.211642326,123,A
6,2,12/11/95,20,f,93,The picture painted Ryan,Non-sensible,edin_semantics,sem_emo_sem_emo,0.503749878145754,1,2,2,1,256230.458320291,35,A
6,2,12/11/95,20,f,94,The hill climbed Luke,Non-sensible,edin_semantics,sem_emo_sem_emo,0.63270854606526,1,1,1,1,256231.834402406,68,A
6,2,12/11/95,20,f,95,The ham ate Tim,Non-sensible,edin_semantics,sem_emo_sem_emo,1.02142869972158,2,2,2,1,256233.598565797,67,A
6,2,12/11/95,20,f,96,The pen described John,Non-sensible,edin_semantics,sem_emo_sem_emo,0.586343413422583,2,1,1,1,256234.92756789,42,A
6,2,12/11/95,20,f,97,Ian mailed the invite,Sensible,edin_semantics,sem_emo_sem_emo,1.0447708251013,1,2,2,1,256236.715277386,89,A
6,2,12/11/95,20,f,98,Tom visited the hospital,Sensible,edin_semantics,sem_emo_sem_emo,0.927077186148381,2,2,1,0,256238.385370536,91,A
6,2,12/11/95,20,f,99,Kate wore the dress,Sensible,edin_semantics,sem_emo_sem_emo,0.550725985667668,2,1,1,1,256239.679096129,100,A
6,2,12/11/95,20,f,100,Bill trimmed the hair,Sensible,edin_semantics,sem_emo_sem_emo,0.750347983033862,2,2,2,1,256241.172747443,107,A
6,2,12/11/95,20,f,101,The pill swallowed Luke,Non-sensible,edin_semantics,sem_emo_sem_emo,2.43263272746117,1,1,1,1,256244.348286127,22,A
6,2,12/11/95,20,f,102,Luke watered the plants,Sensible,edin_semantics,sem_emo_sem_emo,0.950369920406956,1,2,2,1,256246.041872142,129,A
6,2,12/11/95,20,f,103,The juice drank Matt,Non-sensible,edin_semantics,sem_emo_sem_emo,0.738596739916829,1,1,1,1,256247.523765157,60,A
6,2,12/11/95,20,f,104,Fred chopped the carrots,Sensible,edin_semantics,sem_emo_sem_emo,1.63269186855177,2,1,1,1,256249.899565999,102,A
6,2,12/11/95,20,f,105,Leo passed the salt,Sensible,edin_semantics,sem_emo_sem_emo,1.18592140779947,1,1,2,0,256251.828377328,118,A
6,2,12/11/95,20,f,106,Tom offered the sweets,Sensible,edin_semantics,sem_emo_sem_emo,0.656209428707371,2,1,1,1,256253.227929215,84,A
6,2,12/11/95,20,f,107,Jack posted the gift,Sensible,edin_semantics,sem_emo_sem_emo,1.02095210726839,1,2,2,1,256254.992103511,111,A
6,2,12/11/95,20,f,108,The handle pulled Tim,Non-sensible,edin_semantics,sem_emo_sem_emo,0.621519848820753,1,2,1,0,256256.356418347,73,A
6,2,12/11/95,20,f,109,Adam chewed the fat,Sensible,edin_semantics,sem_emo_sem_emo,1.65601635421626,1,1,1,1,256258.755704998,106,A
6,2,12/11/95,20,f,110,The photo took Beth,Non-sensible,edin_semantics,sem_emo_sem_emo,0.915463532641297,2,2,1,0,256260.414014191,53,A
6,2,12/11/95,20,f,111,Emma pulled the rope,Sensible,edin_semantics,sem_emo_sem_emo,0.856353240320459,2,1,1,1,256262.013527079,120,A
6,2,12/11/95,20,f,112,John carried the kettle,Sensible,edin_semantics,sem_emo_sem_emo,0.703586759074824,2,2,1,0,256263.460167006,105,A
6,2,12/11/95,20,f,113,The lorry dented Lily,Non-sensible,edin_semantics,sem_emo_sem_emo,1.89124070547405,2,2,2,1,256266.094686668,71,A
6,2,12/11/95,20,f,114,Erin punched the monitor,Sensible,edin_semantics,sem_emo_sem_emo,1.49160767524154,2,2,2,1,256268.329317363,125,A
6,2,12/11/95,20,f,115,The lever pulled Hugh,Non-sensible,edin_semantics,sem_emo_sem_emo,1.37349870169419,2,2,2,1,256270.44629451,45,A
6,2,12/11/95,20,f,116,The thread measured Amy,Non-sensible,edin_semantics,sem_emo_sem_emo,1.59705680108164,1,2,2,1,256272.787001021,51,A
6,2,12/11/95,20,f,117,The ball squeezed Josh,Non-sensible,edin_semantics,sem_emo_sem_emo,1.47982692572987,1,2,2,1,256275.009628065,1,A
6,2,12/11/95,20,f,118,The room entered Ryan,Non-sensible,edin_semantics,sem_emo_sem_emo,1.23292413519812,1,1,1,1,256276.985503379,58,A
6,2,12/11/95,20,f,119,Phil solved the problem,Sensible,edin_semantics,sem_emo_sem_emo,1.16210557645536,2,2,2,1,256278.890823447,109,A
6,2,12/11/95,20,f,120,Jay sold the bed,Sensible,edin_semantics,sem_emo_sem_emo,1.20930683059851,2,2,2,1,256280.843169333,113,A
6,2,12/11/95,20,f,121,The wine stored Leo,Non-sensible,edin_semantics,sem_emo_sem_emo,1.32708161213668,1,1,1,1,256282.913119698,52,A
6,2,12/11/95,20,f,122,The story wrote Ewan,Non-sensible,edin_semantics,sem_emo_sem_emo,0.85636350340792,2,1,1,1,256284.512691278,74,A
6,2,12/11/95,20,f,123,The trolley pushed Matt,Non-sensible,edin_semantics,sem_emo_sem_emo,0.86808010857203,2,1,1,1,256286.12392879,26,A
6,2,12/11/95,20,f,124,Rob measured the curtains,Sensible,edin_semantics,sem_emo_sem_emo,1.67956438293913,1,1,1,1,256288.546709908,126,A
6,2,12/11/95,20,f,125,The parcel mailed Rob,Non-sensible,edin_semantics,sem_emo_sem_emo,0.915578351035947,2,1,1,1,256290.205080681,14,A
6,2,12/11/95,20,f,126,Ryan knitted the socks,Sensible,edin_semantics,sem_emo_sem_emo,0.891548919054912,1,2,2,1,256291.83986173,141,A
6,2,12/11/95,20,f,127,Tim sniffed the perfume,Sensible,edin_semantics,sem_emo_sem_emo,0.597539166541537,2,2,1,0,256293.180652592,93,A
6,2,12/11/95,20,f,128,Joe entered the office,Sensible,edin_semantics,sem_emo_sem_emo,0.891333394043613,1,2,2,1,256294.815489126,133,A
6,2,12/11/95,20,f,129,Luke fixed the radio,Sensible,edin_semantics,sem_emo_sem_emo,0.739058899896918,2,1,1,1,256296.297358408,112,A
6,2,12/11/95,20,f,130,The room tidied Sam,Non-sensible,edin_semantics,sem_emo_sem_emo,0.667676191689679,2,1,1,1,256297.708694252,2,A
6,2,12/11/95,20,f,131,The garden watered Jeff,Non-sensible,edin_semantics,sem_emo_sem_emo,3.06768895639107,1,1,2,0,256301.519326048,54,A
6,2,12/11/95,20,f,132,Erin tidied the garage,Sensible,edin_semantics,sem_emo_sem_emo,1.56206221488537,2,2,2,1,256303.824547911,77,A
6,2,12/11/95,20,f,133,Tom grated the carrots,Sensible,edin_semantics,sem_emo_sem_emo,1.03279796327115,1,1,2,0,256305.600432397,140,A
6,2,12/11/95,20,f,134,The sofa sold Carl,Non-sensible,edin_semantics,sem_emo_sem_emo,1.16235445649363,2,1,1,1,256307.505761124,38,A
6,2,12/11/95,20,f,135,The dish served Kate,Non-sensible,edin_semantics,sem_emo_sem_emo,1.52676198087283,1,1,1,1,256309.775699109,70,A
6,2,12/11/95,20,f,136,Kate hugged the pillow,Sensible,edin_semantics,sem_emo_sem_emo,0.868304293049732,2,1,1,1,256311.386932772,86,A
6,2,12/11/95,20,f,137,The towels passed Phil,Non-sensible,edin_semantics,sem_emo_sem_emo,0.750781919516157,1,2,2,1,256312.880566125,43,A
6,2,12/11/95,20,f,138,Leo carried the wallet,Sensible,edin_semantics,sem_emo_sem_emo,0.656663570640376,2,1,1,1,256314.280176705,150,A
6,2,12/11/95,20,f,139,Ian filed the report,Sensible,edin_semantics,sem_emo_sem_emo,1.00947347757756,2,2,1,0,256316.032601682,99,A
6,2,12/11/95,20,f,140,Josh taught the rules,Sensible,edin_semantics,sem_emo_sem_emo,0.997696897480637,1,1,2,0,256317.773268359,90,A
6,2,12/11/95,20,f,141,The paper cut Jon,Non-sensible,edin_semantics,sem_emo_sem_emo,0.844729965174338,2,1,1,1,256319.361004026,20,A
6,2,12/11/95,20,f,142,The table wiped Beth,Non-sensible,edin_semantics,sem_emo_sem_emo,0.833035489806207,1,1,2,0,256320.936955094,40,A
6,2,12/11/95,20,f,143,Fred stored the rice,Sensible,edin_semantics,sem_emo_sem_emo,1.02103421202628,2,2,2,1,256322.70118295,127,A
6,2,12/11/95,20,f,144,The scarf knitted Tom,Non-sensible,edin_semantics,sem_emo_sem_emo,0.938684425258543,2,1,1,1,256324.383023174,66,A
6,2,12/11/95,20,f,145,Amy lifted the crate,Sensible,edin_semantics,sem_emo_sem_emo,0.903479124855949,1,1,2,0,256326.029590105,144,A
6,2,12/11/95,20,f,146,The coins polished Jon,Non-sensible,edin_semantics,sem_emo_sem_emo,4.45523302356014,2,2,2,1,256331.228023508,29,A
6,2,12/11/95,20,f,147,Alex dusted the house,Sensible,edin_semantics,sem_emo_sem_emo,2.22018154131365,1,1,1,1,256334.191817235,122,A
6,2,12/11/95,20,f,148,Adam watched the opera,Sensible,edin_semantics,sem_emo_sem_emo,1.26787029244588,2,1,1,1,256336.202993103,108,A
6,2,12/11/95,20,f,149,The milk sniffed Phil,Non-sensible,edin_semantics,sem_emo_sem_emo,5.01927793998038,1,1,1,1,256341.965965655,18,A
6,2,12/11/95,20,f,150,The tree hugged Amy,Non-sensible,edin_semantics,sem_emo_sem_emo,1.39727123564808,1,2,2,1,256344.106513922,11,A
6,2,12/11/95,20,f,151,The radio got Ben,Non-sensible,edin_semantics,sem_emo_sem_emo,1.81370366853662,1,2,2,1,256350.975010969,88,B
6,2,12/11/95,20,f,152,The onion sliced Liam,Non-sensible,edin_semantics,sem_emo_sem_emo,1.34725244133733,2,2,1,0,256353.068537907,78,B
6,2,12/11/95,20,f,153,Jeff watered the garden,Sensible,edin_semantics,sem_emo_sem_emo,1.21957826381549,1,2,2,1,256355.032671599,54,B
6,2,12/11/95,20,f,154,The dress wore Kate,Non-sensible,edin_semantics,sem_emo_sem_emo,1.25511486968026,2,2,2,1,256357.032034966,100,B
6,2,12/11/95,20,f,155,The door kicked Max,Non-sensible,edin_semantics,sem_emo_sem_emo,1.2313176401949,2,2,2,1,256359.007921505,114,B
6,2,12/11/95,20,f,156,The rope pulled Andy,Non-sensible,edin_semantics,sem_emo_sem_emo,1.31371329020476,1,2,2,1,256361.066107157,148,B
6,2,12/11/95,20,f,157,Kate built the house,Sensible,edin_semantics,sem_emo_sem_emo,0.949187419522787,1,2,2,1,256362.7596967,46,B
6,2,12/11/95,20,f,158,Liz sliced the tomato,Sensible,edin_semantics,sem_emo_sem_emo,1.80773984850384,1,1,1,1,256365.311885497,3,B
6,2,12/11/95,20,f,159,The sweets offered Tom,Non-sensible,edin_semantics,sem_emo_sem_emo,0.949249318771763,1,2,2,1,256367.005509037,84,B
6,2,12/11/95,20,f,160,Rob mailed the parcel,Sensible,edin_semantics,sem_emo_sem_emo,1.30286616153899,2,2,2,1,256369.052284052,14,B
6,2,12/11/95,20,f,161,The trophy polished Anna,Non-sensible,edin_semantics,sem_emo_sem_emo,0.901269031630363,1,2,2,1,256370.698522243,104,B
6,2,12/11/95,20,f,162,Jon jumped the fence,Sensible,edin_semantics,sem_emo_sem_emo,1.4666048529034,1,1,1,1,256372.909620304,17,B
6,2,12/11/95,20,f,163,Jake dusted the shelf,Sensible,edin_semantics,sem_emo_sem_emo,1.03154907296994,1,1,1,1,256374.685546805,47,B
6,2,12/11/95,20,f,164,Mary iced the cake,Sensible,edin_semantics,sem_emo_sem_emo,0.902247553545749,1,2,2,1,256376.332107642,44,B
6,2,12/11/95,20,f,165,Tom dialed the number,Sensible,edin_semantics,sem_emo_sem_emo,0.890590281866025,1,1,1,1,256377.966938083,63,B
6,2,12/11/95,20,f,166,The hedge jumped Sara,Non-sensible,edin_semantics,sem_emo_sem_emo,0.608333376090741,1,2,2,1,256379.319430155,92,B
6,2,12/11/95,20,f,167,Jon polished the coins,Sensible,edin_semantics,sem_emo_sem_emo,1.25568030204158,2,1,1,1,256381.318869533,29,B
6,2,12/11/95,20,f,168,Lara filed the papers,Sensible,edin_semantics,sem_emo_sem_emo,1.69101543055149,2,2,2,1,256383.753393236,24,B
6,2,12/11/95,20,f,169,The problem solved Phil,Non-sensible,edin_semantics,sem_emo_sem_emo,1.59695898098289,1,1,2,0,256386.093889033,109,B
6,2,12/11/95,20,f,170,Ryan painted the picture,Sensible,edin_semantics,sem_emo_sem_emo,2.1973038209544,1,1,2,0,256389.034643717,35,B
6,2,12/11/95,20,f,171,The pan washed Beth,Non-sensible,edin_semantics,sem_emo_sem_emo,1.1612184602418,1,2,2,1,256390.939459289,132,B
6,2,12/11/95,20,f,172,The hospital visited Tom,Non-sensible,edin_semantics,sem_emo_sem_emo,2.98443120648153,1,1,1,1,256394.667782351,91,B
6,2,12/11/95,20,f,173,The sugar weighed Liz,Non-sensible,edin_semantics,sem_emo_sem_emo,0.903110294922953,2,1,1,1,256396.314359224,139,B
6,2,12/11/95,20,f,174,Phil sniffed the milk,Sensible,edin_semantics,sem_emo_sem_emo,0.726214316498954,1,2,2,1,256397.784477583,18,B
6,2,12/11/95,20,f,175,Kate served the dish,Sensible,edin_semantics,sem_emo_sem_emo,0.679543536040001,1,2,2,1,256399.207588083,70,B
6,2,12/11/95,20,f,176,The car lent Fred,Non-sensible,edin_semantics,sem_emo_sem_emo,3.45490075586713,2,2,2,1,256403.406296986,94,B
6,2,12/11/95,20,f,177,The crate lifted Amy,Non-sensible,edin_semantics,sem_emo_sem_emo,0.855699288775213,2,2,2,1,256405.005836494,144,B
6,2,12/11/95,20,f,178,The office entered Joe,Non-sensible,edin_semantics,sem_emo_sem_emo,0.832289491110714,2,1,1,1,256406.581834708,133,B
6,2,12/11/95,20,f,179,Mary visited the museum,Sensible,edin_semantics,sem_emo_sem_emo,1.15007081537624,1,2,2,1,256408.475376271,16,B
6,2,12/11/95,20,f,180,The pot scrubbed Josh,Non-sensible,edin_semantics,sem_emo_sem_emo,0.843970175425056,1,1,1,1,256410.06312669,131,B
6,2,12/11/95,20,f,181,The perfume sniffed Tim,Non-sensible,edin_semantics,sem_emo_sem_emo,0.820794183906401,1,1,1,1,256411.627374944,93,B
6,2,12/11/95,20,f,182,The party cancelled Phil,Non-sensible,edin_semantics,sem_emo_sem_emo,0.679507294495124,2,2,2,1,256413.050494425,82,B
6,2,12/11/95,20,f,183,The house dusted Alex,Non-sensible,edin_semantics,sem_emo_sem_emo,0.67958234337857,2,2,2,1,256414.473571249,122,B
6,2,12/11/95,20,f,184,Mark washed the dishes,Sensible,edin_semantics,sem_emo_sem_emo,0.890877007099334,2,1,1,1,256416.10840618,57,B
6,2,12/11/95,20,f,185,Dan whisked the eggs,Sensible,edin_semantics,sem_emo_sem_emo,0.726148568559438,2,2,2,1,256417.578546027,62,B
6,2,12/11/95,20,f,186,The wallet carried Leo,Non-sensible,edin_semantics,sem_emo_sem_emo,1.56180692042108,2,2,2,1,256419.883738063,150,B
6,2,12/11/95,20,f,187,The message typed Eve,Non-sensible,edin_semantics,sem_emo_sem_emo,1.03225626435597,1,2,2,1,256421.659652697,124,B
6,2,12/11/95,20,f,188,The socks knitted Ryan,Non-sensible,edin_semantics,sem_emo_sem_emo,1.1614115346747,1,1,2,0,256423.564937806,141,B
6,2,12/11/95,20,f,189,The ribbon cut Lucy,Non-sensible,edin_semantics,sem_emo_sem_emo,1.51471214584308,1,1,1,1,256425.823090872,95,B
6,2,12/11/95,20,f,190,Jen searched the room,Sensible,edin_semantics,sem_emo_sem_emo,1.30303357826779,2,2,2,1,256427.869548373,10,B
6,2,12/11/95,20,f,191,Joe wore the jumper,Sensible,edin_semantics,sem_emo_sem_emo,1.17335841804743,1,1,2,0,256429.786637323,25,B
6,2,12/11/95,20,f,192,Leah sucked the lolly,Sensible,edin_semantics,sem_emo_sem_emo,0.99727675205213,1,2,2,1,256431.527265835,12,B
6,2,12/11/95,20,f,193,The bed sold Jay,Non-sensible,edin_semantics,sem_emo_sem_emo,0.903116388624767,2,1,1,1,256433.17383918,113,B
6,2,12/11/95,20,f,194,Sam tidied the room,Sensible,edin_semantics,sem_emo_sem_emo,0.808985210896935,1,2,2,1,256434.726305081,2,B
6,2,12/11/95,20,f,195,The rose kissed Hugh,Non-sensible,edin_semantics,sem_emo_sem_emo,0.844285124156158,1,2,2,1,256436.314096873,98,B
6,2,12/11/95,20,f,196,Bill counted the sheets,Sensible,edin_semantics,sem_emo_sem_emo,0.843802438001148,1,2,2,1,256437.901807203,48,B
6,2,12/11/95,20,f,197,The hair brushed Dan,Non-sensible,edin_semantics,sem_emo_sem_emo,2.80821964817005,1,1,1,1,256441.45367175,147,B
6,2,12/11/95,20,f,198,Jack mixed the fruits,Sensible,edin_semantics,sem_emo_sem_emo,0.855542776582297,1,2,2,1,256443.053210617,8,B
6,2,12/11/95,20,f,199,The rice stored Fred,Non-sensible,edin_semantics,sem_emo_sem_emo,0.938305011484772,1,1,1,1,256444.735042181,127,B
6,2,12/11/95,20,f,200,Max lent the bucket,Sensible,edin_semantics,sem_emo_sem_emo,1.80798712495016,1,1,1,1,256447.287235469,19,B
6,2,12/11/95,20,f,201,The stairs climbed Ben,Non-sensible,edin_semantics,sem_emo_sem_emo,0.985177846596343,1,1,1,1,256449.0161137,143,B
6,2,12/11/95,20,f,202,Lily dented the lorry,Sensible,edin_semantics,sem_emo_sem_emo,0.973600755358348,1,1,1,1,256450.733244215,71,B
6,2,12/11/95,20,f,203,Amy measured the thread,Sensible,edin_semantics,sem_emo_sem_emo,0.902602592454059,1,1,1,1,256452.379801845,51,B
6,2,12/11/95,20,f,204,The salt passed Leo,Non-sensible,edin_semantics,sem_emo_sem_emo,1.17379203380551,2,2,1,0,256454.296875722,118,B
6,2,12/11/95,20,f,205,The curtains measured Rob,Non-sensible,edin_semantics,sem_emo_sem_emo,0.844114179490134,2,2,2,1,256455.884681305,126,B
6,2,12/11/95,20,f,206,The carrots grated Tom,Non-sensible,edin_semantics,sem_emo_sem_emo,1.06785605239565,1,2,2,1,256457.695837802,140,B
6,2,12/11/95,20,f,207,The hotline dialed Hugh,Non-sensible,edin_semantics,sem_emo_sem_emo,0.750089160632342,2,2,2,1,256459.189531131,138,B
6,2,12/11/95,20,f,208,Rob stroked the fur,Sensible,edin_semantics,sem_emo_sem_emo,0.97340703944792,2,1,1,1,256460.906652025,41,B
6,2,12/11/95,20,f,209,Beth wiped the table,Sensible,edin_semantics,sem_emo_sem_emo,1.06729767590878,1,2,2,1,256462.717838349,40,B
6,2,12/11/95,20,f,210,The button pushed Ian,Non-sensible,edin_semantics,sem_emo_sem_emo,0.961482606595382,2,1,1,1,256464.423241355,101,B
6,2,12/11/95,20,f,211,The bowl dented Ian,Non-sensible,edin_semantics,sem_emo_sem_emo,0.93805869721109,2,2,2,1,256466.105100181,146,B
6,2,12/11/95,20,f,212,The box labeled Ian,Non-sensible,edin_semantics,sem_emo_sem_emo,0.856161128001986,2,2,2,1,256467.704603447,136,B
6,2,12/11/95,20,f,213,The garage tidied Erin,Non-sensible,edin_semantics,sem_emo_sem_emo,1.19707546709105,1,1,1,1,256469.645305212,77,B
6,2,12/11/95,20,f,214,Matt drank the juice,Sensible,edin_semantics,sem_emo_sem_emo,0.902874564460944,1,2,2,1,256471.291757324,60,B
6,2,12/11/95,20,f,215,The rope pulled Emma,Non-sensible,edin_semantics,sem_emo_sem_emo,0.784971814980963,1,2,2,1,256472.820722984,120,B
6,2,12/11/95,20,f,216,The radio fixed Luke,Non-sensible,edin_semantics,sem_emo_sem_emo,0.796781429438852,1,2,2,1,256474.361474845,112,B
6,2,12/11/95,20,f,217,Jen weighed the flour,Sensible,edin_semantics,sem_emo_sem_emo,0.949058810103452,2,2,2,1,256476.055051559,64,B
6,2,12/11/95,20,f,218,Tom knitted the scarf,Sensible,edin_semantics,sem_emo_sem_emo,0.796944035333581,1,2,2,1,256477.595764934,66,B
6,2,12/11/95,20,f,219,The gum swallowed Owen,Non-sensible,edin_semantics,sem_emo_sem_emo,0.643728864437435,1,1,2,0,256478.983579049,97,B
6,2,12/11/95,20,f,220,The fat chewed Adam,Non-sensible,edin_semantics,sem_emo_sem_emo,0.749199157900875,2,2,2,1,256480.477247682,106,B
6,2,12/11/95,20,f,221,The nuts mixed Liam,Non-sensible,edin_semantics,sem_emo_sem_emo,0.737161189579638,2,1,2,0,256481.959106059,83,B
6,2,12/11/95,20,f,222,The report wrote Alex,Non-sensible,edin_semantics,sem_emo_sem_emo,0.749255604925565,1,1,2,0,256483.452829856,149,B
6,2,12/11/95,20,f,223,Phil passed the towels,Sensible,edin_semantics,sem_emo_sem_emo,0.984218888712348,1,1,1,1,256485.181701352,43,B
6,2,12/11/95,20,f,224,Dan carried the folder,Sensible,edin_semantics,sem_emo_sem_emo,0.808492261625361,2,2,2,1,256486.734180723,30,B
6,2,12/11/95,20,f,225,The opera watched Adam,Non-sensible,edin_semantics,sem_emo_sem_emo,2.40760168162524,1,2,2,1,256489.886190942,108,B
6,2,12/11/95,20,f,226,Phil chopped the herbs,Sensible,edin_semantics,sem_emo_sem_emo,0.914077052730136,1,1,1,1,256491.544536057,27,B
6,2,12/11/95,20,f,227,The plate licked Jane,Non-sensible,edin_semantics,sem_emo_sem_emo,1.50210329290712,2,2,2,1,256493.790882395,96,B
6,2,12/11/95,20,f,228,The shed built Rose,Non-sensible,edin_semantics,sem_emo_sem_emo,1.22012766008265,2,1,1,1,256495.75499075,121,B
6,2,12/11/95,20,f,229,Tim ate the ham,Sensible,edin_semantics,sem_emo_sem_emo,1.13763034128351,2,1,1,1,256497.63677209,67,B
6,2,12/11/95,20,f,230,The carrots chopped Fred,Non-sensible,edin_semantics,sem_emo_sem_emo,0.808242740138667,1,2,2,1,256499.189254348,102,B
6,2,12/11/95,20,f,231,Eve taught the lesson,Sensible,edin_semantics,sem_emo_sem_emo,0.878482075495413,1,1,1,1,256500.812288644,15,B
6,2,12/11/95,20,f,232,Ryan carried the gun,Sensible,edin_semantics,sem_emo_sem_emo,0.878751481737709,1,1,1,1,256502.435311074,75,B
6,2,12/11/95,20,f,233,The hair trimmed Bill,Non-sensible,edin_semantics,sem_emo_sem_emo,1.24315195024246,2,1,1,1,256504.422963289,107,B
6,2,12/11/95,20,f,234,The lemon squeezed Jay,Non-sensible,edin_semantics,sem_emo_sem_emo,1.05463269667234,1,2,2,1,256506.222433328,76,B
6,2,12/11/95,20,f,235,Amy hugged the tree,Sensible,edin_semantics,sem_emo_sem_emo,0.99641016201349,1,1,1,1,256507.963122457,11,B
6,2,12/11/95,20,f,236,Jane punched the wall,Sensible,edin_semantics,sem_emo_sem_emo,1.12601476346026,2,2,2,1,256509.833139724,50,B
6,2,12/11/95,20,f,237,The shoes counted Lucy,Non-sensible,edin_semantics,sem_emo_sem_emo,0.773668299341807,2,1,1,1,256511.350299939,123,B
6,2,12/11/95,20,f,238,The church described Erin,Non-sensible,edin_semantics,sem_emo_sem_emo,0.620127916656202,2,1,1,1,256512.714602908,117,B
6,2,12/11/95,20,f,239,The turnip mashed Ella,Non-sensible,edin_semantics,sem_emo_sem_emo,0.7263689043466,2,1,1,1,256514.184732813,103,B
6,2,12/11/95,20,f,240,Joe solved the puzzle,Sensible,edin_semantics,sem_emo_sem_emo,0.938319764682092,1,2,2,1,256515.866599978,34,B
6,2,12/11/95,20,f,241,Ewan wrote the story,Sensible,edin_semantics,sem_emo_sem_emo,0.632383975724224,1,2,2,1,256517.242646172,74,B
6,2,12/11/95,20,f,242,The blanket stroked Ryan,Non-sensible,edin_semantics,sem_emo_sem_emo,0.784793814440491,2,2,2,1,256518.77161119,116,B
6,2,12/11/95,20,f,243,The gift posted Jack,Non-sensible,edin_semantics,sem_emo_sem_emo,0.926156394154532,1,1,2,0,256520.441687984,111,B
6,2,12/11/95,20,f,244,Ben chewed the toffee,Sensible,edin_semantics,sem_emo_sem_emo,0.902319395187078,1,1,2,0,256522.088240803,31,B
6,2,12/11/95,20,f,245,Carl brushed the teeth,Sensible,edin_semantics,sem_emo_sem_emo,0.714734724664595,1,2,2,1,256523.54667078,72,B
6,2,12/11/95,20,f,246,Tim cleaned the floor,Sensible,edin_semantics,sem_emo_sem_emo,0.714893161173677,2,1,1,1,256525.005043349,5,B
6,2,12/11/95,20,f,247,Beth took the photo,Sensible,edin_semantics,sem_emo_sem_emo,0.997155519260559,1,1,2,0,256526.74566705,53,B
6,2,12/11/95,20,f,248,The desk wiped Lucy,Non-sensible,edin_semantics,sem_emo_sem_emo,0.632494624704123,1,1,2,0,256528.12172479,115,B
6,2,12/11/95,20,f,249,The trousers ironed Eve,Non-sensible,edin_semantics,sem_emo_sem_emo,0.890820239321329,2,2,1,0,256529.756530856,130,B
6,2,12/11/95,20,f,250,The ticket took Tim,Non-sensible,edin_semantics,sem_emo_sem_emo,0.820812465040945,1,2,2,1,256531.320802843,128,B
6,2,12/11/95,20,f,251,Max kissed the mirror,Sensible,edin_semantics,sem_emo_sem_emo,0.762004292540951,2,1,1,1,256532.826205721,23,B
6,2,12/11/95,20,f,252,Sean read the book,Sensible,edin_semantics,sem_emo_sem_emo,0.809187906997977,2,2,2,1,256534.378672263,4,B
6,2,12/11/95,20,f,253,The rules taught Josh,Non-sensible,edin_semantics,sem_emo_sem_emo,0.762007820478175,1,2,2,1,256535.884091819,90,B
6,2,12/11/95,20,f,254,Ella watched the movie,Sensible,edin_semantics,sem_emo_sem_emo,0.773617625323823,2,1,1,1,256537.401306877,33,B
6,2,12/11/95,20,f,255,Matt pushed the trolley,Sensible,edin_semantics,sem_emo_sem_emo,0.667203447868815,1,2,2,1,256538.812606159,26,B
6,2,12/11/95,20,f,256,Will licked the spoon,Sensible,edin_semantics,sem_emo_sem_emo,0.985232689999975,1,1,2,0,256540.541546931,21,B
6,2,12/11/95,20,f,257,Jon cut the paper,Sensible,edin_semantics,sem_emo_sem_emo,0.738945685123326,1,2,2,1,256542.023836358,20,B
6,2,12/11/95,20,f,258,Matt kicked the bike,Sensible,edin_semantics,sem_emo_sem_emo,0.713454724376788,2,1,1,1,256543.481818287,39,B
6,2,12/11/95,20,f,259,The report filed Ian,Non-sensible,edin_semantics,sem_emo_sem_emo,0.948393312573899,2,1,1,1,256545.175404302,99,B
6,2,12/11/95,20,f,260,Liz labeled the jar,Sensible,edin_semantics,sem_emo_sem_emo,1.78479509733734,1,1,1,1,256547.704055654,61,B
6,2,12/11/95,20,f,261,The donut iced Joe,Non-sensible,edin_semantics,sem_emo_sem_emo,1.01960956622497,1,1,1,1,256549.468270361,119,B
6,2,12/11/95,20,f,262,Mike paid the bill,Sensible,edin_semantics,sem_emo_sem_emo,0.831923868390732,2,1,1,1,256551.044240993,59,B
6,2,12/11/95,20,f,263,The plants watered Luke,Non-sensible,edin_semantics,sem_emo_sem_emo,0.879517044435488,2,1,1,1,256552.667307041,129,B
6,2,12/11/95,20,f,264,Luke swallowed the pill,Sensible,edin_semantics,sem_emo_sem_emo,1.17311883892398,2,2,2,1,256554.584331847,22,B
6,2,12/11/95,20,f,265,The poster read Luke,Non-sensible,edin_semantics,sem_emo_sem_emo,0.797282076004194,2,1,1,1,256556.12508435,79,B
6,2,12/11/95,20,f,266,Carl sold the sofa,Sensible,edin_semantics,sem_emo_sem_emo,0.80904807234765,1,2,2,1,256557.677514651,38,B
6,2,12/11/95,20,f,267,Phil typed the letter,Sensible,edin_semantics,sem_emo_sem_emo,0.996776746906107,1,1,2,0,256559.418196082,49,B
6,2,12/11/95,20,f,268,Ian cancelled the plans,Sensible,edin_semantics,sem_emo_sem_emo,0.949664011946879,2,1,1,1,256561.11180583,7,B
6,2,12/11/95,20,f,269,The steak ate Mike,Non-sensible,edin_semantics,sem_emo_sem_emo,0.94979454568238,1,2,2,1,256562.805448292,142,B
6,2,12/11/95,20,f,270,The portrait painted Jay,Non-sensible,edin_semantics,sem_emo_sem_emo,2.58485334037687,2,2,2,1,256566.133852881,110,B
6,2,12/11/95,20,f,271,The monitor punched Erin,Non-sensible,edin_semantics,sem_emo_sem_emo,1.96116380923195,1,1,1,1,256568.838949598,125,B
6,2,12/11/95,20,f,272,The cream whisked Tom,Non-sensible,edin_semantics,sem_emo_sem_emo,0.573327564634383,1,1,1,1,256570.156188582,137,B
6,2,12/11/95,20,f,273,Jon trimmed the bushes,Sensible,edin_semantics,sem_emo_sem_emo,0.6320853838115,1,2,2,1,256571.532198214,32,B
6,2,12/11/95,20,f,274,Josh squeezed the ball,Sensible,edin_semantics,sem_emo_sem_emo,1.31293938870658,1,1,1,1,256573.59039926,1,B
6,2,12/11/95,20,f,275,Leo stored the wine,Sensible,edin_semantics,sem_emo_sem_emo,0.926361335325055,2,2,2,1,256575.260484072,52,B
6,2,12/11/95,20,f,276,The bath cleaned Jack,Non-sensible,edin_semantics,sem_emo_sem_emo,0.750114818365546,1,2,2,1,256576.754156553,80,B
6,2,12/11/95,20,f,277,Erin crushed the garlic,Sensible,edin_semantics,sem_emo_sem_emo,0.738396930304589,2,2,2,1,256578.23608613,6,B
6,2,12/11/95,20,f,278,The debt paid Zoe,Non-sensible,edin_semantics,sem_emo_sem_emo,0.997236020397395,2,2,2,1,256579.976680004,134,B
6,2,12/11/95,20,f,279,The candy sucked Sam,Non-sensible,edin_semantics,sem_emo_sem_emo,1.02063651711796,1,1,1,1,256581.740888296,87,B
6,2,12/11/95,20,f,280,Hugh pulled the lever,Sensible,edin_semantics,sem_emo_sem_emo,0.997008628706681,1,1,1,1,256583.481542787,45,B
6,2,12/11/95,20,f,281,John described the pen,Sensible,edin_semantics,sem_emo_sem_emo,0.667677474557422,1,2,2,1,256584.892906855,42,B
6,2,12/11/95,20,f,282,Luke climbed the hill,Sensible,edin_semantics,sem_emo_sem_emo,0.903162572532892,2,2,2,1,256586.539464805,68,B
6,2,12/11/95,20,f,283,Liz scrubbed the bowl,Sensible,edin_semantics,sem_emo_sem_emo,0.679347575060092,1,2,2,1,256587.962566005,56,B
6,2,12/11/95,20,f,284,Will mashed the potatoes,Sensible,edin_semantics,sem_emo_sem_emo,0.761540208244696,1,2,2,1,256589.468004482,28,B
6,2,12/11/95,20,f,285,Jen fixed the laptop,Sensible,edin_semantics,sem_emo_sem_emo,0.596769113704795,1,1,1,1,256590.808751084,37,B
6,2,12/11/95,20,f,286,Erin posted the card,Sensible,edin_semantics,sem_emo_sem_emo,0.585557965969201,1,2,2,1,256592.137778515,36,B
6,2,12/11/95,20,f,287,The kettle carried John,Non-sensible,edin_semantics,sem_emo_sem_emo,0.420571346447105,1,1,1,1,256593.302134595,105,B
6,2,12/11/95,20,f,288,Lily got the kettle,Sensible,edin_semantics,sem_emo_sem_emo,1.06706322837272,2,1,1,1,256595.113420022,13,B
6,2,12/11/95,20,f,289,The beer drank Jack,Non-sensible,edin_semantics,sem_emo_sem_emo,0.537588583334582,2,1,1,1,256596.395300721,135,B
6,2,12/11/95,20,f,290,Ryan entered the room,Sensible,edin_semantics,sem_emo_sem_emo,0.878543654078385,1,2,2,1,256598.018369015,58,B
6,2,12/11/95,20,f,291,Josh ironed the shirt,Sensible,edin_semantics,sem_emo_sem_emo,0.620179552817717,1,1,1,1,256599.382642477,55,B
6,2,12/11/95,20,f,292,The ice crushed Josh,Non-sensible,edin_semantics,sem_emo_sem_emo,1.19658604578581,2,1,1,1,256601.323240328,81,B
6,2,12/11/95,20,f,293,The dessert served Fred,Non-sensible,edin_semantics,sem_emo_sem_emo,1.80794029956451,2,1,1,1,256603.875414693,145,B
6,2,12/11/95,20,f,294,The internet searched Max,Non-sensible,edin_semantics,sem_emo_sem_emo,1.14898934177472,1,1,1,1,256605.768994422,85,B
6,2,12/11/95,20,f,295,Matt offered the money,Sensible,edin_semantics,sem_emo_sem_emo,0.51459700675332,1,1,1,1,256607.0274015,9,B
6,2,12/11/95,20,f,296,Andy grated the cheese,Sensible,edin_semantics,sem_emo_sem_emo,0.432078841084149,1,1,1,1,256608.203509786,65,B
6,2,12/11/95,20,f,297,Tim pulled the handle,Sensible,edin_semantics,sem_emo_sem_emo,1.03219532719231,2,1,1,1,256609.97947766,73,B
6,2,12/11/95,20,f,298,The pillow hugged Kate,Non-sensible,edin_semantics,sem_emo_sem_emo,1.05523950213683,2,2,1,0,256611.778941285,86,B
6,2,12/11/95,20,f,299,The invite mailed Ian,Non-sensible,edin_semantics,sem_emo_sem_emo,0.58480010056519,1,1,2,0,256613.107923494,89,B
6,2,12/11/95,20,f,300,Kate lifted the box,Sensible,edin_semantics,sem_emo_sem_emo,1.27905321668368,2,1,1,1,256615.13085734,69,B
