subject_column,AssignedList_column,subject_dob_column,subject_age_column,subject_gender_column,trialnum_column,Stim_column,Type_column,Experiment_column,OrderGroup_column,ReactionTime_column,StimSide_column,StimPosition_column,Response_column,Valid_column,TrialEndSecs_column,PairID_column,List_column
60,4,11/10/95,20,m,1,Tim cleaned the floor,Sensible,edin_semantics,sem_emo_sem_emo,1.62557713501155,2,1,1,1,258241.599139894,5,B
60,4,11/10/95,20,m,2,The radio fixed Luke,Non-sensible,edin_semantics,sem_emo_sem_emo,1.56110478937626,2,2,2,1,258243.904354988,112,B
60,4,11/10/95,20,m,3,The gift posted Jack,Non-sensible,edin_semantics,sem_emo_sem_emo,1.20913262013346,1,1,1,1,258245.856663335,111,B
60,4,11/10/95,20,m,4,Mike paid the bill,Sensible,edin_semantics,sem_emo_sem_emo,1.29142799778492,2,1,1,1,258247.891321904,59,B
60,4,11/10/95,20,m,5,The curtains measured Rob,Non-sensible,edin_semantics,sem_emo_sem_emo,3.12642223126022,1,2,2,1,258251.760750522,126,B
60,4,11/10/95,20,m,6,Kate served the dish,Sensible,edin_semantics,sem_emo_sem_emo,1.55038922533276,1,2,2,1,258254.054178528,70,B
60,4,11/10/95,20,m,7,Will licked the spoon,Sensible,edin_semantics,sem_emo_sem_emo,0.880311598361004,2,1,1,1,258255.677215243,21,B
60,4,11/10/95,20,m,8,Will mashed the potatoes,Sensible,edin_semantics,sem_emo_sem_emo,1.13885236246279,2,2,2,1,258257.559048014,28,B
60,4,11/10/95,20,m,9,Max kissed the mirror,Sensible,edin_semantics,sem_emo_sem_emo,0.868069408839801,2,1,1,1,258259.1702351,23,B
60,4,11/10/95,20,m,10,The message typed Eve,Non-sensible,edin_semantics,sem_emo_sem_emo,2.50274856734904,2,2,2,1,258262.416298587,124,B
60,4,11/10/95,20,m,11,The rope pulled Emma,Non-sensible,edin_semantics,sem_emo_sem_emo,1.70315697172191,1,2,2,1,258264.862571633,120,B
60,4,11/10/95,20,m,12,The candy sucked Sam,Non-sensible,edin_semantics,sem_emo_sem_emo,0.879976767057087,2,1,1,1,258266.485630477,87,B
60,4,11/10/95,20,m,13,Lily got the kettle,Sensible,edin_semantics,sem_emo_sem_emo,0.950646378361853,2,1,1,1,258268.17922391,13,B
60,4,11/10/95,20,m,14,The hotline dialed Hugh,Non-sensible,edin_semantics,sem_emo_sem_emo,0.90331329050241,2,2,2,1,258269.825794711,138,B
60,4,11/10/95,20,m,15,The nuts mixed Liam,Non-sensible,edin_semantics,sem_emo_sem_emo,1.08004264289048,1,1,1,1,258271.648750091,83,B
60,4,11/10/95,20,m,16,The kettle carried John,Non-sensible,edin_semantics,sem_emo_sem_emo,1.24421902842005,1,1,1,1,258273.636387311,105,B
60,4,11/10/95,20,m,17,The church described Erin,Non-sensible,edin_semantics,sem_emo_sem_emo,1.38541200285545,2,1,1,1,258275.765120007,117,B
60,4,11/10/95,20,m,18,The blanket stroked Ryan,Non-sensible,edin_semantics,sem_emo_sem_emo,1.05656371993246,1,2,2,1,258277.564614104,116,B
60,4,11/10/95,20,m,19,The donut iced Joe,Non-sensible,edin_semantics,sem_emo_sem_emo,0.691917031101184,2,1,1,1,258278.999419497,119,B
60,4,11/10/95,20,m,20,Phil chopped the herbs,Sensible,edin_semantics,sem_emo_sem_emo,1.15053008543327,1,1,1,1,258280.892982269,27,B
60,4,11/10/95,20,m,21,The poster read Luke,Non-sensible,edin_semantics,sem_emo_sem_emo,1.06794606009498,2,1,1,1,258282.704184878,79,B
60,4,11/10/95,20,m,22,The desk wiped Lucy,Non-sensible,edin_semantics,sem_emo_sem_emo,1.03289910033345,2,1,1,1,258284.48011442,115,B
60,4,11/10/95,20,m,23,Carl brushed the teeth,Sensible,edin_semantics,sem_emo_sem_emo,1.17384864855558,1,2,2,1,258286.397142645,72,B
60,4,11/10/95,20,m,24,Ian cancelled the plans,Sensible,edin_semantics,sem_emo_sem_emo,1.23282834957354,2,1,1,1,258288.373049544,7,B
60,4,11/10/95,20,m,25,Max lent the bucket,Sensible,edin_semantics,sem_emo_sem_emo,1.35056068209815,2,1,1,1,258290.466502116,19,B
60,4,11/10/95,20,m,26,The internet searched Max,Non-sensible,edin_semantics,sem_emo_sem_emo,1.2206288157613,2,1,1,1,258292.430606532,85,B
60,4,11/10/95,20,m,27,Mary visited the museum,Sensible,edin_semantics,sem_emo_sem_emo,1.07956412917702,2,2,2,1,258294.25359206,16,B
60,4,11/10/95,20,m,28,The bath cleaned Jack,Non-sensible,edin_semantics,sem_emo_sem_emo,1.4209682654473,1,2,2,1,258296.41762316,80,B
60,4,11/10/95,20,m,29,The rose kissed Hugh,Non-sensible,edin_semantics,sem_emo_sem_emo,1.92669760112767,1,2,2,1,258299.087395461,98,B
60,4,11/10/95,20,m,30,The stairs climbed Ben,Non-sensible,edin_semantics,sem_emo_sem_emo,1.05627250651014,1,1,1,1,258300.886886672,143,B
60,4,11/10/95,20,m,31,Ewan wrote the story,Sensible,edin_semantics,sem_emo_sem_emo,1.97381644829875,1,2,2,1,258303.603658513,74,B
60,4,11/10/95,20,m,32,Jack mixed the fruits,Sensible,edin_semantics,sem_emo_sem_emo,1.76209754493902,1,2,2,1,258306.108777519,8,B
60,4,11/10/95,20,m,33,Jake dusted the shelf,Sensible,edin_semantics,sem_emo_sem_emo,0.668087240861496,2,1,1,1,258307.520112008,47,B
60,4,11/10/95,20,m,34,The carrots grated Tom,Non-sensible,edin_semantics,sem_emo_sem_emo,2.09140830559772,1,2,2,1,258310.354509062,140,B
60,4,11/10/95,20,m,35,Andy grated the cheese,Sensible,edin_semantics,sem_emo_sem_emo,0.938193476060405,1,1,1,1,258312.036348119,65,B
60,4,11/10/95,20,m,36,Josh ironed the shirt,Sensible,edin_semantics,sem_emo_sem_emo,0.644657708762679,2,1,1,1,258313.424153012,55,B
60,4,11/10/95,20,m,37,The sweets offered Tom,Non-sensible,edin_semantics,sem_emo_sem_emo,0.867830152012175,2,2,2,1,258315.035392696,84,B
60,4,11/10/95,20,m,38,Mark washed the dishes,Sensible,edin_semantics,sem_emo_sem_emo,1.09140189122991,1,1,1,1,258316.870175895,57,B
60,4,11/10/95,20,m,39,The plate licked Jane,Non-sensible,edin_semantics,sem_emo_sem_emo,1.36206104705343,1,2,2,1,258318.975429989,96,B
60,4,11/10/95,20,m,40,Ryan painted the picture,Sensible,edin_semantics,sem_emo_sem_emo,0.95024964818731,1,1,1,1,258320.66901829,35,B
60,4,11/10/95,20,m,41,Josh squeezed the ball,Sensible,edin_semantics,sem_emo_sem_emo,1.2330307236407,1,1,1,1,258322.644846613,1,B
60,4,11/10/95,20,m,42,The gum swallowed Owen,Non-sensible,edin_semantics,sem_emo_sem_emo,0.927060655783862,1,1,1,1,258324.314950859,97,B
60,4,11/10/95,20,m,43,Beth took the photo,Sensible,edin_semantics,sem_emo_sem_emo,0.809434802184114,2,1,1,1,258325.867411292,53,B
60,4,11/10/95,20,m,44,The carrots chopped Fred,Non-sensible,edin_semantics,sem_emo_sem_emo,1.69152767746709,1,2,2,1,258328.301944716,102,B
60,4,11/10/95,20,m,45,Dan carried the folder,Sensible,edin_semantics,sem_emo_sem_emo,1.07998330975533,1,2,2,1,258330.124941148,30,B
60,4,11/10/95,20,m,46,The party cancelled Phil,Non-sensible,edin_semantics,sem_emo_sem_emo,0.856332032068167,2,2,2,1,258331.724452115,82,B
60,4,11/10/95,20,m,47,The cream whisked Tom,Non-sensible,edin_semantics,sem_emo_sem_emo,0.797531292628264,1,1,1,1,258333.265124818,137,B
60,4,11/10/95,20,m,48,The office entered Joe,Non-sensible,edin_semantics,sem_emo_sem_emo,0.856121960707242,1,1,1,1,258334.864624559,133,B
60,4,11/10/95,20,m,49,Mary iced the cake,Sensible,edin_semantics,sem_emo_sem_emo,0.762343857641099,2,2,2,1,258336.37008898,44,B
60,4,11/10/95,20,m,50,Lily dented the lorry,Sensible,edin_semantics,sem_emo_sem_emo,1.22099956765305,1,1,1,1,258338.334156514,71,B
60,4,11/10/95,20,m,51,The plants watered Luke,Non-sensible,edin_semantics,sem_emo_sem_emo,0.797369970649015,2,1,1,1,258339.874869307,129,B
60,4,11/10/95,20,m,52,Erin crushed the garlic,Sensible,edin_semantics,sem_emo_sem_emo,1.83253238946781,2,2,2,1,258342.450562991,6,B
60,4,11/10/95,20,m,53,The ticket took Tim,Non-sensible,edin_semantics,sem_emo_sem_emo,1.36198407434858,2,2,2,1,258344.555772825,128,B
60,4,11/10/95,20,m,54,The hospital visited Tom,Non-sensible,edin_semantics,sem_emo_sem_emo,0.926788364798995,1,1,1,1,258346.225900164,91,B
60,4,11/10/95,20,m,55,Leah sucked the lolly,Sensible,edin_semantics,sem_emo_sem_emo,1.83206445950782,1,2,2,1,258348.801532591,12,B
60,4,11/10/95,20,m,56,Phil sniffed the milk,Sensible,edin_semantics,sem_emo_sem_emo,1.35034195129992,1,2,2,1,258350.895035196,18,B
60,4,11/10/95,20,m,57,Matt offered the money,Sensible,edin_semantics,sem_emo_sem_emo,0.926607478933875,1,1,1,1,258352.565097749,9,B
60,4,11/10/95,20,m,58,The report filed Ian,Non-sensible,edin_semantics,sem_emo_sem_emo,0.926762707240414,2,1,1,1,258354.235198468,99,B
60,4,11/10/95,20,m,59,Matt kicked the bike,Sensible,edin_semantics,sem_emo_sem_emo,1.83235952159157,1,1,1,1,258356.810859118,39,B
60,4,11/10/95,20,m,60,The box labeled Ian,Non-sensible,edin_semantics,sem_emo_sem_emo,2.80871478660265,1,2,2,1,258360.362668811,136,B
60,4,11/10/95,20,m,61,Jen searched the room,Sensible,edin_semantics,sem_emo_sem_emo,1.19735547408345,1,2,2,1,258362.303267363,10,B
60,4,11/10/95,20,m,62,Beth wiped the table,Sensible,edin_semantics,sem_emo_sem_emo,2.24441691246466,1,2,2,1,258365.290606314,40,B
60,4,11/10/95,20,m,63,Leo stored the wine,Sensible,edin_semantics,sem_emo_sem_emo,3.23193899399485,1,2,2,1,258369.265858624,52,B
60,4,11/10/95,20,m,64,Kate lifted the box,Sensible,edin_semantics,sem_emo_sem_emo,1.20923813688569,1,1,1,1,258371.218198402,69,B
60,4,11/10/95,20,m,65,The monitor punched Erin,Non-sensible,edin_semantics,sem_emo_sem_emo,1.58543297793949,1,1,1,1,258373.54689723,125,B
60,4,11/10/95,20,m,66,The report wrote Alex,Non-sensible,edin_semantics,sem_emo_sem_emo,1.67924090792076,1,1,1,1,258375.969650942,149,B
60,4,11/10/95,20,m,67,Amy measured the thread,Sensible,edin_semantics,sem_emo_sem_emo,1.53839431068627,1,1,1,1,258378.251343174,51,B
60,4,11/10/95,20,m,68,Ella watched the movie,Sensible,edin_semantics,sem_emo_sem_emo,1.20906206182553,1,1,1,1,258380.203687121,33,B
60,4,11/10/95,20,m,69,Carl sold the sofa,Sensible,edin_semantics,sem_emo_sem_emo,1.35008858278161,2,2,2,1,258382.297156692,38,B
60,4,11/10/95,20,m,70,Eve taught the lesson,Sensible,edin_semantics,sem_emo_sem_emo,0.656630814512027,2,1,1,1,258383.69676535,15,B
60,4,11/10/95,20,m,71,The steak ate Mike,Non-sensible,edin_semantics,sem_emo_sem_emo,1.24429279394099,1,2,2,1,258385.68430892,142,B
60,4,11/10/95,20,m,72,Lara filed the papers,Sensible,edin_semantics,sem_emo_sem_emo,1.23300089672557,2,2,2,1,258387.660179577,24,B
60,4,11/10/95,20,m,73,The sugar weighed Liz,Non-sensible,edin_semantics,sem_emo_sem_emo,0.938477954361588,2,1,1,1,258389.342034671,139,B
60,4,11/10/95,20,m,74,Jon cut the paper,Sensible,edin_semantics,sem_emo_sem_emo,1.04407938709483,1,2,2,1,258391.129676573,20,B
60,4,11/10/95,20,m,75,The hair trimmed Bill,Non-sensible,edin_semantics,sem_emo_sem_emo,0.891860712727066,1,1,1,1,258392.764544315,107,B
60,4,11/10/95,20,m,76,The ribbon cut Lucy,Non-sensible,edin_semantics,sem_emo_sem_emo,1.1973946018843,1,1,1,1,258394.70509059,95,B
60,4,11/10/95,20,m,77,The turnip mashed Ella,Non-sensible,edin_semantics,sem_emo_sem_emo,1.51498530464596,2,1,1,1,258396.963236869,103,B
60,4,11/10/95,20,m,78,Jon trimmed the bushes,Sensible,edin_semantics,sem_emo_sem_emo,2.47906310093822,1,2,2,1,258400.185790003,32,B
60,4,11/10/95,20,m,79,Amy hugged the tree,Sensible,edin_semantics,sem_emo_sem_emo,0.973999258480035,1,1,1,1,258401.90288096,11,B
60,4,11/10/95,20,m,80,Jeff watered the garden,Sensible,edin_semantics,sem_emo_sem_emo,1.29136738178204,1,2,2,1,258403.937550754,54,B
60,4,11/10/95,20,m,81,The trophy polished Anna,Non-sensible,edin_semantics,sem_emo_sem_emo,1.26799878638121,2,2,2,1,258405.948699289,104,B
60,4,11/10/95,20,m,82,Sam tidied the room,Sensible,edin_semantics,sem_emo_sem_emo,1.32659651033464,2,2,2,1,258408.018652413,2,B
60,4,11/10/95,20,m,83,The pot scrubbed Josh,Non-sensible,edin_semantics,sem_emo_sem_emo,1.05607911254629,1,1,1,1,258409.818154207,131,B
60,4,11/10/95,20,m,84,The portrait painted Jay,Non-sensible,edin_semantics,sem_emo_sem_emo,1.42086563512567,2,2,2,1,258411.982181137,110,B
60,4,11/10/95,20,m,85,Tom knitted the scarf,Sensible,edin_semantics,sem_emo_sem_emo,1.04442383997957,2,2,2,1,258413.769825926,66,B
60,4,11/10/95,20,m,86,The pan washed Beth,Non-sensible,edin_semantics,sem_emo_sem_emo,1.73828443215461,1,2,2,1,258416.25143073,132,B
60,4,11/10/95,20,m,87,The house dusted Alex,Non-sensible,edin_semantics,sem_emo_sem_emo,1.92642915880424,1,2,2,1,258418.92117962,122,B
60,4,11/10/95,20,m,88,The garage tidied Erin,Non-sensible,edin_semantics,sem_emo_sem_emo,1.10301033873111,1,1,1,1,258420.767696027,77,B
60,4,11/10/95,20,m,89,Sean read the book,Sensible,edin_semantics,sem_emo_sem_emo,1.38534785894444,1,2,2,1,258422.896450532,4,B
60,4,11/10/95,20,m,90,Liz labeled the jar,Sensible,edin_semantics,sem_emo_sem_emo,1.43262546233018,1,1,1,1,258425.072241458,61,B
60,4,11/10/95,20,m,91,The dress wore Kate,Non-sensible,edin_semantics,sem_emo_sem_emo,1.17366487617255,1,2,2,1,258426.989292133,100,B
60,4,11/10/95,20,m,92,The door kicked Max,Non-sensible,edin_semantics,sem_emo_sem_emo,1.33861868616077,2,2,2,1,258429.071026893,114,B
60,4,11/10/95,20,m,93,The onion sliced Liam,Non-sensible,edin_semantics,sem_emo_sem_emo,3.92596539820079,1,2,2,1,258433.740190469,78,B
60,4,11/10/95,20,m,94,The hair brushed Dan,Non-sensible,edin_semantics,sem_emo_sem_emo,2.85582369143958,1,1,1,1,258437.339062241,147,B
60,4,11/10/95,20,m,95,Jane punched the wall,Sensible,edin_semantics,sem_emo_sem_emo,0.715141944121569,2,2,2,1,258438.797459451,50,B
60,4,11/10/95,20,m,96,Rob stroked the fur,Sensible,edin_semantics,sem_emo_sem_emo,0.773803170508472,1,1,1,1,258440.314626291,41,B
60,4,11/10/95,20,m,97,The beer drank Jack,Non-sensible,edin_semantics,sem_emo_sem_emo,0.950470624025911,2,1,1,1,258442.008223252,135,B
60,4,11/10/95,20,m,98,Jon polished the coins,Sensible,edin_semantics,sem_emo_sem_emo,1.0679989788332,1,1,1,1,258443.819482949,29,B
60,4,11/10/95,20,m,99,The bed sold Jay,Non-sensible,edin_semantics,sem_emo_sem_emo,0.819507644016994,1,1,1,1,258445.383673702,113,B
60,4,11/10/95,20,m,100,Ryan carried the gun,Sensible,edin_semantics,sem_emo_sem_emo,0.890241399261868,1,1,1,1,258447.018464151,75,B
60,4,11/10/95,20,m,101,Phil passed the towels,Sensible,edin_semantics,sem_emo_sem_emo,1.33805325743742,2,1,1,1,258449.100159783,43,B
60,4,11/10/95,20,m,102,John described the pen,Sensible,edin_semantics,sem_emo_sem_emo,1.15007113560569,2,2,2,1,258450.993718706,42,B
60,4,11/10/95,20,m,103,Joe solved the puzzle,Sensible,edin_semantics,sem_emo_sem_emo,1.15013239305699,1,2,2,1,258452.887249406,34,B
60,4,11/10/95,20,m,104,The dessert served Fred,Non-sensible,edin_semantics,sem_emo_sem_emo,0.96227150328923,1,1,1,1,258454.592606514,145,B
60,4,11/10/95,20,m,105,The crate lifted Amy,Non-sensible,edin_semantics,sem_emo_sem_emo,1.09157604197389,2,2,2,1,258456.427335833,144,B
60,4,11/10/95,20,m,106,Ryan entered the room,Sensible,edin_semantics,sem_emo_sem_emo,1.44400010519894,1,2,2,1,258458.61490134,58,B
60,4,11/10/95,20,m,107,The lemon squeezed Jay,Non-sensible,edin_semantics,sem_emo_sem_emo,0.938678083417472,2,2,2,1,258460.296733021,76,B
60,4,11/10/95,20,m,108,The opera watched Adam,Non-sensible,edin_semantics,sem_emo_sem_emo,0.903396356879966,1,2,2,1,258461.943292918,108,B
60,4,11/10/95,20,m,109,Joe wore the jumper,Sensible,edin_semantics,sem_emo_sem_emo,1.42097596268286,1,1,1,1,258464.107316,25,B
60,4,11/10/95,20,m,110,Tom dialed the number,Sensible,edin_semantics,sem_emo_sem_emo,1.02080540399766,2,1,1,1,258465.871493412,63,B
60,4,11/10/95,20,m,111,Tim ate the ham,Sensible,edin_semantics,sem_emo_sem_emo,1.00943332689349,2,1,1,1,258467.623874434,67,B
60,4,11/10/95,20,m,112,Dan whisked the eggs,Sensible,edin_semantics,sem_emo_sem_emo,1.45593761102646,2,2,2,1,258469.823194316,62,B
60,4,11/10/95,20,m,113,The shed built Rose,Non-sensible,edin_semantics,sem_emo_sem_emo,0.785986347618746,2,1,1,1,258471.352165884,121,B
60,4,11/10/95,20,m,114,The perfume sniffed Tim,Non-sensible,edin_semantics,sem_emo_sem_emo,0.703495651658159,2,1,1,1,258472.798776006,93,B
60,4,11/10/95,20,m,115,The rules taught Josh,Non-sensible,edin_semantics,sem_emo_sem_emo,0.809162831923459,1,2,2,1,258474.351267869,90,B
60,4,11/10/95,20,m,116,Jen fixed the laptop,Sensible,edin_semantics,sem_emo_sem_emo,0.715041558869416,1,1,1,1,258475.809652571,37,B
60,4,11/10/95,20,m,117,The rope pulled Andy,Non-sensible,edin_semantics,sem_emo_sem_emo,0.99755066409125,2,2,2,1,258477.550246184,148,B
60,4,11/10/95,20,m,118,The bowl dented Ian,Non-sensible,edin_semantics,sem_emo_sem_emo,1.74982777354307,1,2,2,1,258480.043630059,146,B
60,4,11/10/95,20,m,119,The pillow hugged Kate,Non-sensible,edin_semantics,sem_emo_sem_emo,0.973826711328002,2,2,2,1,258481.76072262,86,B
60,4,11/10/95,20,m,120,Hugh pulled the lever,Sensible,edin_semantics,sem_emo_sem_emo,1.22096428848454,2,1,1,1,258483.724843393,45,B
60,4,11/10/95,20,m,121,Jen weighed the flour,Sensible,edin_semantics,sem_emo_sem_emo,0.891493168019224,2,2,2,1,258485.359616843,64,B
60,4,11/10/95,20,m,122,The button pushed Ian,Non-sensible,edin_semantics,sem_emo_sem_emo,0.691361865407089,2,1,1,1,258486.79445944,101,B
60,4,11/10/95,20,m,123,The debt paid Zoe,Non-sensible,edin_semantics,sem_emo_sem_emo,1.17384191343444,1,2,2,1,258488.711531603,134,B
60,4,11/10/95,20,m,124,The car lent Fred,Non-sensible,edin_semantics,sem_emo_sem_emo,0.809150323853828,2,2,2,1,258490.263994602,94,B
60,4,11/10/95,20,m,125,The ice crushed Josh,Non-sensible,edin_semantics,sem_emo_sem_emo,1.00951767613878,1,1,1,1,258492.016389736,81,B
60,4,11/10/95,20,m,126,Tim pulled the handle,Sensible,edin_semantics,sem_emo_sem_emo,0.70323458587518,2,1,1,1,258493.463035137,73,B
60,4,11/10/95,20,m,127,The shoes counted Lucy,Non-sensible,edin_semantics,sem_emo_sem_emo,0.844085031771101,1,1,1,1,258495.050757412,123,B
60,4,11/10/95,20,m,128,The rice stored Fred,Non-sensible,edin_semantics,sem_emo_sem_emo,0.762252773274668,2,1,1,1,258496.556342103,127,B
60,4,11/10/95,20,m,129,The salt passed Leo,Non-sensible,edin_semantics,sem_emo_sem_emo,1.20833050028887,1,2,2,1,258498.508530501,118,B
60,4,11/10/95,20,m,130,The fat chewed Adam,Non-sensible,edin_semantics,sem_emo_sem_emo,0.914954451378435,2,2,2,1,258500.166832906,106,B
60,4,11/10/95,20,m,131,Jon jumped the fence,Sensible,edin_semantics,sem_emo_sem_emo,1.03270442347275,2,1,1,1,258501.942738394,17,B
60,4,11/10/95,20,m,132,The wallet carried Leo,Non-sensible,edin_semantics,sem_emo_sem_emo,1.10330219360185,2,2,2,1,258503.789255764,150,B
60,4,11/10/95,20,m,133,Liz scrubbed the bowl,Sensible,edin_semantics,sem_emo_sem_emo,1.03282244832371,2,2,2,1,258505.565173118,56,B
60,4,11/10/95,20,m,134,The radio got Ben,Non-sensible,edin_semantics,sem_emo_sem_emo,1.26773034405778,2,2,2,1,258507.576337369,88,B
60,4,11/10/95,20,m,135,Bill counted the sheets,Sensible,edin_semantics,sem_emo_sem_emo,2.6085802767484,1,2,2,1,258510.928259506,48,B
60,4,11/10/95,20,m,136,The hedge jumped Sara,Non-sensible,edin_semantics,sem_emo_sem_emo,5.25488135297201,1,2,2,1,258516.926383937,92,B
60,4,11/10/95,20,m,137,Luke swallowed the pill,Sensible,edin_semantics,sem_emo_sem_emo,1.71460762518109,1,2,2,1,258519.384451448,22,B
60,4,11/10/95,20,m,138,Ben chewed the toffee,Sensible,edin_semantics,sem_emo_sem_emo,1.63261244108435,1,1,1,1,258521.760209789,31,B
60,4,11/10/95,20,m,139,Matt drank the juice,Sensible,edin_semantics,sem_emo_sem_emo,1.95003027594066,1,2,2,1,258524.453513291,60,B
60,4,11/10/95,20,m,140,Matt pushed the trolley,Sensible,edin_semantics,sem_emo_sem_emo,1.05603132530814,2,2,2,1,258526.252943886,26,B
60,4,11/10/95,20,m,141,Phil typed the letter,Sensible,edin_semantics,sem_emo_sem_emo,0.774110419937642,2,1,1,1,258527.770117781,49,B
60,4,11/10/95,20,m,142,Kate built the house,Sensible,edin_semantics,sem_emo_sem_emo,1.39747074074694,1,2,2,1,258529.910682786,46,B
60,4,11/10/95,20,m,143,The socks knitted Ryan,Non-sensible,edin_semantics,sem_emo_sem_emo,1.1149587490363,1,1,1,1,258531.768891349,141,B
60,4,11/10/95,20,m,144,The invite mailed Ian,Non-sensible,edin_semantics,sem_emo_sem_emo,1.19757933641085,1,1,1,1,258533.709506579,89,B
60,4,11/10/95,20,m,145,The problem solved Phil,Non-sensible,edin_semantics,sem_emo_sem_emo,1.8088472437812,1,1,1,1,258536.261650462,109,B
60,4,11/10/95,20,m,146,Liz sliced the tomato,Sensible,edin_semantics,sem_emo_sem_emo,1.60906231839908,1,1,1,1,258538.61385387,3,B
60,4,11/10/95,20,m,147,The trousers ironed Eve,Non-sensible,edin_semantics,sem_emo_sem_emo,0.961895299144089,2,2,2,1,258540.319220921,130,B
60,4,11/10/95,20,m,148,Luke climbed the hill,Sensible,edin_semantics,sem_emo_sem_emo,1.72669105845853,1,2,2,1,258542.789139984,68,B
60,4,11/10/95,20,m,149,Erin posted the card,Sensible,edin_semantics,sem_emo_sem_emo,1.42112670093775,1,2,2,1,258544.953086093,36,B
60,4,11/10/95,20,m,150,Rob mailed the parcel,Sensible,edin_semantics,sem_emo_sem_emo,1.16183128350531,1,2,2,1,258546.858400353,14,B
60,4,11/10/95,20,m,151,Max searched the internet,Sensible,edin_semantics,sem_emo_sem_emo,1.2610125503852,2,2,2,1,258608.839375905,85,A
60,4,11/10/95,20,m,152,Tim took the ticket,Sensible,edin_semantics,sem_emo_sem_emo,0.901993849896826,1,1,1,1,258610.48589924,128,A
60,4,11/10/95,20,m,153,Lucy wiped the desk,Sensible,edin_semantics,sem_emo_sem_emo,0.985061199724441,2,2,2,1,258612.214784662,115,A
60,4,11/10/95,20,m,154,The kettle got Lily,Non-sensible,edin_semantics,sem_emo_sem_emo,0.749910839920631,2,2,2,1,258613.708457826,13,A
60,4,11/10/95,20,m,155,Phil cancelled the party,Sensible,edin_semantics,sem_emo_sem_emo,0.808685921831056,1,1,1,1,258615.260924673,82,A
60,4,11/10/95,20,m,156,Ian labeled the box,Sensible,edin_semantics,sem_emo_sem_emo,0.773664940352319,2,1,1,1,258616.778081891,136,A
60,4,11/10/95,20,m,157,Mike ate the steak,Sensible,edin_semantics,sem_emo_sem_emo,1.20864576773602,2,1,1,1,258618.730480682,142,A
60,4,11/10/95,20,m,158,Josh crushed the ice,Sensible,edin_semantics,sem_emo_sem_emo,1.49088739274885,1,2,2,1,258620.965068179,81,A
60,4,11/10/95,20,m,159,Bill trimmed the hair,Sensible,edin_semantics,sem_emo_sem_emo,1.16138580391998,2,2,2,1,258622.87033818,107,A
60,4,11/10/95,20,m,160,The lolly sucked Leah,Non-sensible,edin_semantics,sem_emo_sem_emo,0.997023400967009,1,1,1,1,258624.611000427,12,A
60,4,11/10/95,20,m,161,Tom grated the carrots,Sensible,edin_semantics,sem_emo_sem_emo,2.49048649321776,1,1,1,1,258627.845286127,140,A
60,4,11/10/95,20,m,162,Joe entered the office,Sensible,edin_semantics,sem_emo_sem_emo,0.950038293929538,2,2,2,1,258629.538899123,133,A
60,4,11/10/95,20,m,163,Tom offered the sweets,Sensible,edin_semantics,sem_emo_sem_emo,0.926251159398817,2,1,1,1,258631.208957507,84,A
60,4,11/10/95,20,m,164,The herbs chopped Phil,Non-sensible,edin_semantics,sem_emo_sem_emo,1.34982206474524,2,2,2,1,258633.302461716,27,A
60,4,11/10/95,20,m,165,John carried the kettle,Sensible,edin_semantics,sem_emo_sem_emo,1.07907182452618,2,2,2,1,258635.125398815,105,A
60,4,11/10/95,20,m,166,Ben got the radio,Sensible,edin_semantics,sem_emo_sem_emo,0.938027984695509,2,1,1,1,258636.807272831,88,A
60,4,11/10/95,20,m,167,The potatoes mashed Will,Non-sensible,edin_semantics,sem_emo_sem_emo,0.950154394435231,1,1,1,1,258638.500835154,28,A
60,4,11/10/95,20,m,168,The dishes washed Mark,Non-sensible,edin_semantics,sem_emo_sem_emo,1.29089977254625,2,2,2,1,258640.535540868,57,A
60,4,11/10/95,20,m,169,Ian filed the report,Sensible,edin_semantics,sem_emo_sem_emo,1.04400786661427,1,2,2,1,258642.323203938,99,A
60,4,11/10/95,20,m,170,The bike kicked Matt,Non-sensible,edin_semantics,sem_emo_sem_emo,2.83166099421214,1,2,2,1,258645.898605126,39,A
60,4,11/10/95,20,m,171,Adam watched the opera,Sensible,edin_semantics,sem_emo_sem_emo,1.53784106930834,1,1,1,1,258648.180196973,108,A
60,4,11/10/95,20,m,172,The trolley pushed Matt,Non-sensible,edin_semantics,sem_emo_sem_emo,1.07929696972133,2,1,1,1,258650.003182501,26,A
60,4,11/10/95,20,m,173,The spoon licked Will,Non-sensible,edin_semantics,sem_emo_sem_emo,1.47921287702047,2,2,2,1,258652.226032621,21,A
60,4,11/10/95,20,m,174,The bushes trimmed Jon,Non-sensible,edin_semantics,sem_emo_sem_emo,0.679317239206284,2,1,1,1,258653.649140728,32,A
60,4,11/10/95,20,m,175,Liam mixed the nuts,Sensible,edin_semantics,sem_emo_sem_emo,1.16152531694388,1,2,2,1,258655.554401428,83,A
60,4,11/10/95,20,m,176,The fur stroked Rob,Non-sensible,edin_semantics,sem_emo_sem_emo,1.93800777939032,1,2,2,1,258658.235964346,41,A
60,4,11/10/95,20,m,177,Tom whisked the cream,Sensible,edin_semantics,sem_emo_sem_emo,0.796743925893679,2,2,2,1,258659.776680346,137,A
60,4,11/10/95,20,m,178,Jay painted the portrait,Sensible,edin_semantics,sem_emo_sem_emo,1.09118316040258,1,1,1,1,258661.611421211,110,A
60,4,11/10/95,20,m,179,Luke read the poster,Sensible,edin_semantics,sem_emo_sem_emo,1.49121709255269,2,2,2,1,258663.846007105,79,A
60,4,11/10/95,20,m,180,Josh scrubbed the pot,Sensible,edin_semantics,sem_emo_sem_emo,3.07848554902012,1,2,2,1,258667.668349269,131,A
60,4,11/10/95,20,m,181,The ham ate Tim,Non-sensible,edin_semantics,sem_emo_sem_emo,1.56199157919036,1,2,2,1,258669.973532932,67,A
60,4,11/10/95,20,m,182,Hugh kissed the rose,Sensible,edin_semantics,sem_emo_sem_emo,0.726090671290876,2,1,1,1,258671.44370793,98,A
60,4,11/10/95,20,m,183,Ryan knitted the socks,Sensible,edin_semantics,sem_emo_sem_emo,1.96124552117544,1,2,2,1,258674.148750733,141,A
60,4,11/10/95,20,m,184,The box lifted Kate,Non-sensible,edin_semantics,sem_emo_sem_emo,1.41995896070148,1,2,2,1,258676.312765476,69,A
60,4,11/10/95,20,m,185,The sofa sold Carl,Non-sensible,edin_semantics,sem_emo_sem_emo,0.891128830524394,2,1,1,1,258677.947551755,38,A
60,4,11/10/95,20,m,186,Fred stored the rice,Sensible,edin_semantics,sem_emo_sem_emo,1.00880952714942,2,2,2,1,258679.699977999,127,A
60,4,11/10/95,20,m,187,The fruits mixed Jack,Non-sensible,edin_semantics,sem_emo_sem_emo,1.27952224318869,1,1,1,1,258681.722861345,8,A
60,4,11/10/95,20,m,188,The plans cancelled Ian,Non-sensible,edin_semantics,sem_emo_sem_emo,1.07927195358207,2,2,2,1,258683.545838214,7,A
60,4,11/10/95,20,m,189,Owen swallowed the gum,Sensible,edin_semantics,sem_emo_sem_emo,0.96170222593355,2,2,2,1,258685.251204302,97,A
60,4,11/10/95,20,m,190,The money offered Matt,Non-sensible,edin_semantics,sem_emo_sem_emo,0.85534485700191,2,2,2,1,258686.850708213,9,A
60,4,11/10/95,20,m,191,Liam sliced the onion,Sensible,edin_semantics,sem_emo_sem_emo,1.00895545459935,1,1,1,1,258688.603121628,78,A
60,4,11/10/95,20,m,192,Jack drank the beer,Sensible,edin_semantics,sem_emo_sem_emo,1.71430967663764,2,2,2,1,258691.061159632,135,A
60,4,11/10/95,20,m,193,Tom visited the hospital,Sensible,edin_semantics,sem_emo_sem_emo,0.726489967259113,2,2,2,1,258692.531328857,91,A
60,4,11/10/95,20,m,194,Alex wrote the report,Sensible,edin_semantics,sem_emo_sem_emo,0.773701823083684,2,2,2,1,258694.048496338,149,A
60,4,11/10/95,20,m,195,The juice drank Matt,Non-sensible,edin_semantics,sem_emo_sem_emo,1.98380141294911,1,1,1,1,258696.777051419,60,A
60,4,11/10/95,20,m,196,Alex dusted the house,Sensible,edin_semantics,sem_emo_sem_emo,1.12516212378978,1,1,1,1,258698.647080425,122,A
60,4,11/10/95,20,m,197,Lucy counted the shoes,Sensible,edin_semantics,sem_emo_sem_emo,2.00759913123329,1,2,2,1,258701.399196533,123,A
60,4,11/10/95,20,m,198,Rob measured the curtains,Sensible,edin_semantics,sem_emo_sem_emo,2.13746813649777,1,1,1,1,258704.280648611,126,A
60,4,11/10/95,20,m,199,Zoe paid the debt,Sensible,edin_semantics,sem_emo_sem_emo,1.2556311955268,2,1,1,1,258706.280013586,134,A
60,4,11/10/95,20,m,200,The museum visited Mary,Non-sensible,edin_semantics,sem_emo_sem_emo,0.773265644384082,2,1,1,1,258707.797203838,16,A
60,4,11/10/95,20,m,201,Anna polished the trophy,Sensible,edin_semantics,sem_emo_sem_emo,1.17360041153734,1,1,1,1,258709.714261889,104,A
60,4,11/10/95,20,m,202,The handle pulled Tim,Non-sensible,edin_semantics,sem_emo_sem_emo,1.56165161635727,1,2,2,1,258712.019432403,73,A
60,4,11/10/95,20,m,203,Erin punched the monitor,Sensible,edin_semantics,sem_emo_sem_emo,0.996945786842844,1,2,2,1,258713.760117101,125,A
60,4,11/10/95,20,m,204,Josh taught the rules,Sensible,edin_semantics,sem_emo_sem_emo,1.20882440856076,1,1,1,1,258715.712398829,90,A
60,4,11/10/95,20,m,205,The movie watched Ella,Non-sensible,edin_semantics,sem_emo_sem_emo,1.14995503509999,2,2,2,1,258717.605990466,33,A
60,4,11/10/95,20,m,206,The mirror kissed Max,Non-sensible,edin_semantics,sem_emo_sem_emo,0.679613584128674,2,2,2,1,258719.029076764,23,A
60,4,11/10/95,20,m,207,The table wiped Beth,Non-sensible,edin_semantics,sem_emo_sem_emo,2.00818733105552,1,1,1,1,258721.78117876,40,A
60,4,11/10/95,20,m,208,Liz weighed the sugar,Sensible,edin_semantics,sem_emo_sem_emo,2.57310291123576,1,2,2,1,258725.097772666,139,A
60,4,11/10/95,20,m,209,The milk sniffed Phil,Non-sensible,edin_semantics,sem_emo_sem_emo,1.2677277783223,1,1,1,1,258727.108934031,18,A
60,4,11/10/95,20,m,210,Ian pushed the button,Sensible,edin_semantics,sem_emo_sem_emo,1.59665014749044,2,2,2,1,258729.449395251,101,A
60,4,11/10/95,20,m,211,The folder carried Dan,Non-sensible,edin_semantics,sem_emo_sem_emo,0.996682796714595,1,1,1,1,258731.190012598,30,A
60,4,11/10/95,20,m,212,The jumper wore Joe,Non-sensible,edin_semantics,sem_emo_sem_emo,1.17345993634081,1,2,2,1,258733.107070329,25,A
60,4,11/10/95,20,m,213,The letter typed Phil,Non-sensible,edin_semantics,sem_emo_sem_emo,0.996739884809358,1,2,2,1,258734.847706277,49,A
60,4,11/10/95,20,m,214,The photo took Beth,Non-sensible,edin_semantics,sem_emo_sem_emo,0.961491513124201,1,2,2,1,258736.553060179,53,A
60,4,11/10/95,20,m,215,The flour weighed Jen,Non-sensible,edin_semantics,sem_emo_sem_emo,1.47938895210973,2,1,1,1,258738.775944616,64,A
60,4,11/10/95,20,m,216,Jay sold the bed,Sensible,edin_semantics,sem_emo_sem_emo,0.785446255729767,2,2,2,1,258740.304886998,113,A
60,4,11/10/95,20,m,217,Jack cleaned the bath,Sensible,edin_semantics,sem_emo_sem_emo,0.971818685648032,1,1,1,1,258742.021978917,80,A
60,4,11/10/95,20,m,218,The room tidied Sam,Non-sensible,edin_semantics,sem_emo_sem_emo,0.985228936100611,2,1,1,1,258743.750885186,2,A
60,4,11/10/95,20,m,219,The lesson taught Eve,Non-sensible,edin_semantics,sem_emo_sem_emo,1.38488409834099,1,2,2,1,258745.879624617,15,A
60,4,11/10/95,20,m,220,The garlic crushed Erin,Non-sensible,edin_semantics,sem_emo_sem_emo,0.855694120691624,2,1,1,1,258747.479180484,6,A
60,4,11/10/95,20,m,221,The bowl scrubbed Liz,Non-sensible,edin_semantics,sem_emo_sem_emo,0.808508563844953,2,1,1,1,258749.031614618,56,A
60,4,11/10/95,20,m,222,The cheese grated Andy,Non-sensible,edin_semantics,sem_emo_sem_emo,1.09094839365571,1,2,2,1,258750.866326939,65,A
60,4,11/10/95,20,m,223,The wine stored Leo,Non-sensible,edin_semantics,sem_emo_sem_emo,1.03205240043462,2,1,1,1,258752.642249104,52,A
60,4,11/10/95,20,m,224,The book read Sean,Non-sensible,edin_semantics,sem_emo_sem_emo,1.12643506005406,1,1,1,1,258754.51229575,4,A
60,4,11/10/95,20,m,225,The pill swallowed Luke,Non-sensible,edin_semantics,sem_emo_sem_emo,1.34978261624929,1,1,1,1,258756.605740304,22,A
60,4,11/10/95,20,m,226,Hugh dialed the hotline,Sensible,edin_semantics,sem_emo_sem_emo,2.26718704498489,1,1,1,1,258759.616624567,138,A
60,4,11/10/95,20,m,227,The picture painted Ryan,Non-sensible,edin_semantics,sem_emo_sem_emo,1.65564973308938,2,2,2,1,258762.015850286,35,A
60,4,11/10/95,20,m,228,The story wrote Ewan,Non-sensible,edin_semantics,sem_emo_sem_emo,0.796637767693028,2,1,1,1,258763.556557947,74,A
60,4,11/10/95,20,m,229,Jack posted the gift,Sensible,edin_semantics,sem_emo_sem_emo,0.691285534121562,2,2,2,1,258764.991450576,111,A
60,4,11/10/95,20,m,230,The laptop fixed Jen,Non-sensible,edin_semantics,sem_emo_sem_emo,1.20831606793217,2,2,2,1,258766.943742247,37,A
60,4,11/10/95,20,m,231,The toffee chewed Ben,Non-sensible,edin_semantics,sem_emo_sem_emo,1.60817969791242,1,2,2,1,258769.29599697,31,A
60,4,11/10/95,20,m,232,The eggs whisked Dan,Non-sensible,edin_semantics,sem_emo_sem_emo,1.25573767442256,1,1,1,1,258771.295367076,62,A
60,4,11/10/95,20,m,233,Ian dented the bowl,Sensible,edin_semantics,sem_emo_sem_emo,1.11448729116819,2,1,1,1,258773.153608353,146,A
60,4,11/10/95,20,m,234,Ryan stroked the blanket,Sensible,edin_semantics,sem_emo_sem_emo,2.45483658052399,1,1,1,1,258776.352618099,116,A
60,4,11/10/95,20,m,235,The bill paid Mike,Non-sensible,edin_semantics,sem_emo_sem_emo,1.83195894275559,1,2,2,1,258778.928293823,59,A
60,4,11/10/95,20,m,236,The papers filed Lara,Non-sensible,edin_semantics,sem_emo_sem_emo,1.19661589458701,1,1,1,1,258780.868895903,24,A
60,4,11/10/95,20,m,237,The card posted Erin,Non-sensible,edin_semantics,sem_emo_sem_emo,1.5731593578821,1,1,1,1,258783.185809246,36,A
60,4,11/10/95,20,m,238,Leo carried the wallet,Sensible,edin_semantics,sem_emo_sem_emo,2.12571536516771,1,1,1,1,258786.055526192,150,A
60,4,11/10/95,20,m,239,Max kicked the door,Sensible,edin_semantics,sem_emo_sem_emo,1.349663949979,2,1,1,1,258788.1490304,114,A
60,4,11/10/95,20,m,240,Luke fixed the radio,Sensible,edin_semantics,sem_emo_sem_emo,1.00707411317853,2,1,1,1,258789.901417837,112,A
60,4,11/10/95,20,m,241,Eve ironed the trousers,Sensible,edin_semantics,sem_emo_sem_emo,0.795660214236705,2,1,1,1,258791.442121009,130,A
60,4,11/10/95,20,m,242,Fred chopped the carrots,Sensible,edin_semantics,sem_emo_sem_emo,0.972762563556898,1,1,1,1,258793.159236662,102,A
60,4,11/10/95,20,m,243,Rose built the shed,Sensible,edin_semantics,sem_emo_sem_emo,2.737033946265,1,2,2,1,258796.640521708,121,A
60,4,11/10/95,20,m,244,The room searched Jen,Non-sensible,edin_semantics,sem_emo_sem_emo,0.949250927194953,1,1,1,1,258798.334101991,10,A
60,4,11/10/95,20,m,245,The tree hugged Amy,Non-sensible,edin_semantics,sem_emo_sem_emo,1.27881377350423,1,2,2,1,258800.357031201,11,A
60,4,11/10/95,20,m,246,Erin described the church,Sensible,edin_semantics,sem_emo_sem_emo,1.79558292080765,1,2,2,1,258802.897410445,117,A
60,4,11/10/95,20,m,247,The bucket lent Max,Non-sensible,edin_semantics,sem_emo_sem_emo,1.46711436990881,1,2,2,1,258805.108486306,19,A
60,4,11/10/95,20,m,248,The parcel mailed Rob,Non-sensible,edin_semantics,sem_emo_sem_emo,0.938412206858629,1,1,1,1,258806.790838515,14,A
60,4,11/10/95,20,m,249,Lucy cut the ribbon,Sensible,edin_semantics,sem_emo_sem_emo,1.31362275927677,1,2,2,1,258808.848515132,95,A
60,4,11/10/95,20,m,250,Amy lifted the crate,Sensible,edin_semantics,sem_emo_sem_emo,0.773271738056792,2,1,1,1,258810.365697046,144,A
60,4,11/10/95,20,m,251,The floor cleaned Tim,Non-sensible,edin_semantics,sem_emo_sem_emo,1.37343376560602,2,2,2,1,258812.482733096,5,A
60,4,11/10/95,20,m,252,Emma pulled the rope,Sensible,edin_semantics,sem_emo_sem_emo,2.1142287911207,2,1,1,1,258815.340623825,120,A
60,4,11/10/95,20,m,253,The dish served Kate,Non-sensible,edin_semantics,sem_emo_sem_emo,1.5966985761479,1,1,1,1,258817.681105251,70,A
60,4,11/10/95,20,m,254,The fence jumped Jon,Non-sensible,edin_semantics,sem_emo_sem_emo,0.90297428984195,2,2,2,1,258819.327667714,17,A
60,4,11/10/95,20,m,255,Luke watered the plants,Sensible,edin_semantics,sem_emo_sem_emo,1.63198639635812,1,2,2,1,258821.703437601,129,A
60,4,11/10/95,20,m,256,Joe iced the donut,Sensible,edin_semantics,sem_emo_sem_emo,0.926447119127261,1,2,2,1,258823.373509135,119,A
60,4,11/10/95,20,m,257,The puzzle solved Joe,Non-sensible,edin_semantics,sem_emo_sem_emo,0.973231776413741,1,1,1,1,258825.09062158,34,A
60,4,11/10/95,20,m,258,Fred served the dessert,Sensible,edin_semantics,sem_emo_sem_emo,0.961919032386504,2,2,2,1,258826.796365156,145,A
60,4,11/10/95,20,m,259,The lorry dented Lily,Non-sensible,edin_semantics,sem_emo_sem_emo,1.8307790151739,1,2,2,1,258829.371661148,71,A
60,4,11/10/95,20,m,260,The coins polished Jon,Non-sensible,edin_semantics,sem_emo_sem_emo,1.06688928886433,2,2,2,1,258831.182837779,29,A
60,4,11/10/95,20,m,261,Sam sucked the candy,Sensible,edin_semantics,sem_emo_sem_emo,2.25477102541481,1,2,2,1,258834.181900636,87,A
60,4,11/10/95,20,m,262,The number dialed Tom,Non-sensible,edin_semantics,sem_emo_sem_emo,4.67722101561958,2,2,2,1,258839.603786801,63,A
60,4,11/10/95,20,m,263,The scarf knitted Tom,Non-sensible,edin_semantics,sem_emo_sem_emo,1.84325917868409,1,1,1,1,258842.191244161,66,A
60,4,11/10/95,20,m,264,The room entered Ryan,Non-sensible,edin_semantics,sem_emo_sem_emo,1.2786909378774,1,1,1,1,258844.214154448,58,A
60,4,11/10/95,20,m,265,Fred lent the car,Sensible,edin_semantics,sem_emo_sem_emo,1.31413687288295,2,1,1,1,258846.272325294,94,A
60,4,11/10/95,20,m,266,The ball squeezed Josh,Non-sensible,edin_semantics,sem_emo_sem_emo,1.8790030622331,2,2,2,1,258848.895028781,1,A
60,4,11/10/95,20,m,267,The jar labeled Liz,Non-sensible,edin_semantics,sem_emo_sem_emo,1.92633454650058,1,2,2,1,258851.56483508,61,A
60,4,11/10/95,20,m,268,The house built Kate,Non-sensible,edin_semantics,sem_emo_sem_emo,1.19680640209117,1,1,1,1,258853.505405409,46,A
60,4,11/10/95,20,m,269,Tim sniffed the perfume,Sensible,edin_semantics,sem_emo_sem_emo,0.984893784043379,1,2,2,1,258855.234275437,93,A
60,4,11/10/95,20,m,270,Beth washed the pan,Sensible,edin_semantics,sem_emo_sem_emo,1.3142398238997,2,1,1,1,258857.292479958,132,A
60,4,11/10/95,20,m,271,Phil solved the problem,Sensible,edin_semantics,sem_emo_sem_emo,1.1013034687785,2,2,2,1,258859.138972953,109,A
60,4,11/10/95,20,m,272,The cake iced Mary,Non-sensible,edin_semantics,sem_emo_sem_emo,0.949496598419501,1,1,1,1,258860.832548425,44,A
60,4,11/10/95,20,m,273,The tomato sliced Liz,Non-sensible,edin_semantics,sem_emo_sem_emo,1.33822516314103,1,2,2,1,258862.914269394,3,A
60,4,11/10/95,20,m,274,The gun carried Ryan,Non-sensible,edin_semantics,sem_emo_sem_emo,3.30195690298569,1,2,2,1,258866.960120757,75,A
60,4,11/10/95,20,m,275,The lever pulled Hugh,Non-sensible,edin_semantics,sem_emo_sem_emo,1.87848991079954,1,2,2,1,258869.582821358,45,A
60,4,11/10/95,20,m,276,The teeth brushed Carl,Non-sensible,edin_semantics,sem_emo_sem_emo,8.92385410077986,1,1,1,1,258879.250452856,72,A
60,4,11/10/95,20,m,277,The thread measured Amy,Non-sensible,edin_semantics,sem_emo_sem_emo,1.46652617008658,1,2,2,1,258881.461530641,51,A
60,4,11/10/95,20,m,278,The paper cut Jon,Non-sensible,edin_semantics,sem_emo_sem_emo,1.10192021264811,1,1,1,1,258883.307992526,20,A
60,4,11/10/95,20,m,279,Jay squeezed the lemon,Sensible,edin_semantics,sem_emo_sem_emo,0.984850166190881,1,1,1,1,258885.03686961,76,A
60,4,11/10/95,20,m,280,The shelf dusted Jake,Non-sensible,edin_semantics,sem_emo_sem_emo,1.11438369870302,2,2,2,1,258886.895171822,47,A
60,4,11/10/95,20,m,281,The shirt ironed Josh,Non-sensible,edin_semantics,sem_emo_sem_emo,0.996692097600317,1,2,2,1,258888.635766398,55,A
60,4,11/10/95,20,m,282,Sara jumped the hedge,Sensible,edin_semantics,sem_emo_sem_emo,0.808577518590027,2,1,1,1,258890.188260827,92,A
60,4,11/10/95,20,m,283,The hill climbed Luke,Non-sensible,edin_semantics,sem_emo_sem_emo,1.7609545001178,1,1,1,1,258892.69336957,68,A
60,4,11/10/95,20,m,284,Adam chewed the fat,Sensible,edin_semantics,sem_emo_sem_emo,1.52600651446846,2,1,1,1,258894.963269583,106,A
60,4,11/10/95,20,m,285,The sheets counted Bill,Non-sensible,edin_semantics,sem_emo_sem_emo,1.16136720217764,1,1,1,1,258896.868562034,48,A
60,4,11/10/95,20,m,286,Erin tidied the garage,Sensible,edin_semantics,sem_emo_sem_emo,2.1012425320223,1,2,2,1,258899.714731102,77,A
60,4,11/10/95,20,m,287,Dan brushed the hair,Sensible,edin_semantics,sem_emo_sem_emo,1.12582024050062,1,2,2,1,258901.584705907,147,A
60,4,11/10/95,20,m,288,Kate wore the dress,Sensible,edin_semantics,sem_emo_sem_emo,1.04385295903194,2,1,1,1,258903.372433441,100,A
60,4,11/10/95,20,m,289,Eve typed the message,Sensible,edin_semantics,sem_emo_sem_emo,2.2198642201256,1,1,1,1,258906.336260114,124,A
60,4,11/10/95,20,m,290,The garden watered Jeff,Non-sensible,edin_semantics,sem_emo_sem_emo,1.20857328508282,2,1,1,1,258908.288551463,54,A
60,4,11/10/95,20,m,291,The towels passed Phil,Non-sensible,edin_semantics,sem_emo_sem_emo,0.961132627853658,2,2,2,1,258909.993923325,43,A
60,4,11/10/95,20,m,292,Kate hugged the pillow,Sensible,edin_semantics,sem_emo_sem_emo,1.11459569440922,2,1,1,1,258911.852183523,86,A
60,4,11/10/95,20,m,293,Jane licked the plate,Sensible,edin_semantics,sem_emo_sem_emo,1.32575654555694,2,1,1,1,258913.922145948,96,A
60,4,11/10/95,20,m,294,The pen described John,Non-sensible,edin_semantics,sem_emo_sem_emo,1.17322805602453,1,1,1,1,258915.839179625,42,A
60,4,11/10/95,20,m,295,Andy pulled the rope,Sensible,edin_semantics,sem_emo_sem_emo,1.24369304819265,1,1,1,1,258917.826796319,148,A
60,4,11/10/95,20,m,296,Ella mashed the turnip,Sensible,edin_semantics,sem_emo_sem_emo,1.96162140456727,1,2,2,1,258920.531889154,103,A
60,4,11/10/95,20,m,297,Ian mailed the invite,Sensible,edin_semantics,sem_emo_sem_emo,2.78491257823771,1,2,2,1,258924.060226018,89,A
60,4,11/10/95,20,m,298,The wall punched Jane,Non-sensible,edin_semantics,sem_emo_sem_emo,2.44343628006754,2,1,1,1,258927.247467918,50,A
60,4,11/10/95,20,m,299,Leo passed the salt,Sensible,edin_semantics,sem_emo_sem_emo,2.58444163348759,1,1,1,1,258930.575838008,118,A
60,4,11/10/95,20,m,300,Ben climbed the stairs,Sensible,edin_semantics,sem_emo_sem_emo,1.6669448374887,1,2,2,1,258932.986856588,143,A
