subject_column,AssignedList_column,subject_dob_column,subject_age_column,subject_gender_column,trialnum_column,Stim_column,Type_column,Experiment_column,OrderGroup_column,ReactionTime_column,StimSide_column,StimPosition_column,Response_column,Valid_column,TrialEndSecs_column,PairID_column,List_column
61,1,16/9/95,20,M,1,Phil solved the problem,Sensible,edin_semantics,emo_sem_emo_sem,1.47219937987393,1,1,1,1,262477.238611566,109,A
61,1,16/9/95,20,M,2,The milk sniffed Phil,Non-sensible,edin_semantics,emo_sem_emo_sem,1.25302246195497,1,2,2,1,262479.237990974,18,A
61,1,16/9/95,20,M,3,Tom offered the sweets,Sensible,edin_semantics,emo_sem_emo_sem,1.12397706467891,2,2,2,1,262481.108040185,84,A
61,1,16/9/95,20,M,4,The tree hugged Amy,Non-sensible,edin_semantics,emo_sem_emo_sem,1.67744423646946,1,1,1,1,262483.530788765,11,A
61,1,16/9/95,20,M,5,Luke watered the plants,Sensible,edin_semantics,emo_sem_emo_sem,1.53872401051922,1,1,1,1,262485.812445397,129,A
61,1,16/9/95,20,M,6,The trolley pushed Matt,Non-sensible,edin_semantics,emo_sem_emo_sem,1.4914877799456,1,2,2,1,262488.047065608,26,A
61,1,16/9/95,20,M,7,The teeth brushed Carl,Non-sensible,edin_semantics,emo_sem_emo_sem,1.18563766119769,1,2,2,1,262489.975857829,72,A
61,1,16/9/95,20,M,8,Josh crushed the ice,Sensible,edin_semantics,emo_sem_emo_sem,1.53868488268927,1,1,1,1,262492.257534346,81,A
61,1,16/9/95,20,M,9,Eve ironed the trousers,Sensible,edin_semantics,emo_sem_emo_sem,1.63257652049651,2,2,2,1,262494.63329397,130,A
61,1,16/9/95,20,M,10,Jack drank the beer,Sensible,edin_semantics,emo_sem_emo_sem,5.67871749342885,1,1,1,1,262501.054850756,135,A
61,1,16/9/95,20,M,11,The lever pulled Hugh,Non-sensible,edin_semantics,emo_sem_emo_sem,4.97211278555915,2,1,1,1,262506.770739015,45,A
61,1,16/9/95,20,M,12,The shelf dusted Jake,Non-sensible,edin_semantics,emo_sem_emo_sem,2.04383628157666,2,1,1,1,262509.558104136,47,A
61,1,16/9/95,20,M,13,Jane licked the plate,Sensible,edin_semantics,emo_sem_emo_sem,2.05565159325488,1,2,2,1,262512.357242555,96,A
61,1,16/9/95,20,M,14,Kate hugged the pillow,Sensible,edin_semantics,emo_sem_emo_sem,3.01977108319988,2,2,2,1,262516.120780131,86,A
61,1,16/9/95,20,M,15,The potatoes mashed Will,Non-sensible,edin_semantics,emo_sem_emo_sem,2.43173514457885,1,2,2,1,262519.29633148,28,A
61,1,16/9/95,20,M,16,Luke read the poster,Sensible,edin_semantics,emo_sem_emo_sem,5.32537809642963,1,1,1,1,262525.365013271,79,A
61,1,16/9/95,20,M,17,The room searched Jen,Non-sensible,edin_semantics,emo_sem_emo_sem,2.09068027202738,1,2,2,1,262528.199442718,10,A
61,1,16/9/95,20,M,18,Jay squeezed the lemon,Sensible,edin_semantics,emo_sem_emo_sem,1.79638600273756,1,2,2,1,262530.739831263,76,A
61,1,16/9/95,20,M,19,The garlic crushed Erin,Non-sensible,edin_semantics,emo_sem_emo_sem,1.86750750802457,2,2,2,1,262533.350785186,6,A
61,1,16/9/95,20,M,20,Joe entered the office,Sensible,edin_semantics,emo_sem_emo_sem,2.72569137532264,2,1,1,1,262536.820322272,133,A
61,1,16/9/95,20,M,21,Andy pulled the rope,Sensible,edin_semantics,emo_sem_emo_sem,1.64387547352817,2,2,2,1,262539.207789446,148,A
61,1,16/9/95,20,M,22,The ham ate Tim,Non-sensible,edin_semantics,emo_sem_emo_sem,2.40833992947591,2,1,1,1,262542.359786183,67,A
61,1,16/9/95,20,M,23,Tom whisked the cream,Sensible,edin_semantics,emo_sem_emo_sem,1.88946750276955,1,1,1,1,262544.994259439,137,A
61,1,16/9/95,20,M,24,The lolly sucked Leah,Non-sensible,edin_semantics,emo_sem_emo_sem,2.18498435535003,2,2,2,1,262547.922771351,12,A
61,1,16/9/95,20,M,25,Liam sliced the onion,Sensible,edin_semantics,emo_sem_emo_sem,1.96137316757813,1,2,2,1,262550.627833077,78,A
61,1,16/9/95,20,M,26,The wall punched Jane,Non-sensible,edin_semantics,emo_sem_emo_sem,1.66743297281209,1,2,2,1,262553.038867372,50,A
61,1,16/9/95,20,M,27,The table wiped Beth,Non-sensible,edin_semantics,emo_sem_emo_sem,1.4672651081346,2,2,2,1,262555.249898973,40,A
61,1,16/9/95,20,M,28,The photo took Beth,Non-sensible,edin_semantics,emo_sem_emo_sem,2.17287173646037,1,1,1,1,262558.166678319,53,A
61,1,16/9/95,20,M,29,The dishes washed Mark,Non-sensible,edin_semantics,emo_sem_emo_sem,1.65556185593596,2,1,1,1,262560.565964654,57,A
61,1,16/9/95,20,M,30,The cake iced Mary,Non-sensible,edin_semantics,emo_sem_emo_sem,2.64408041338902,2,2,2,1,262563.953149916,44,A
61,1,16/9/95,20,M,31,The sofa sold Carl,Non-sensible,edin_semantics,emo_sem_emo_sem,2.18524766614428,1,2,2,1,262566.881641623,38,A
61,1,16/9/95,20,M,32,Eve typed the message,Sensible,edin_semantics,emo_sem_emo_sem,2.54952937597409,1,2,2,1,262570.174757889,124,A
61,1,16/9/95,20,M,33,Josh taught the rules,Sensible,edin_semantics,emo_sem_emo_sem,3.3029427951551,2,2,2,1,262574.220591933,90,A
61,1,16/9/95,20,M,34,Ben climbed the stairs,Sensible,edin_semantics,emo_sem_emo_sem,1.85532914171927,2,1,1,1,262576.819780256,143,A
61,1,16/9/95,20,M,35,Tom visited the hospital,Sensible,edin_semantics,emo_sem_emo_sem,1.58503913419554,2,1,1,1,262579.148521418,91,A
61,1,16/9/95,20,M,36,Ella mashed the turnip,Sensible,edin_semantics,emo_sem_emo_sem,4.1729801397305,1,1,1,1,262584.064626291,103,A
61,1,16/9/95,20,M,37,Adam chewed the fat,Sensible,edin_semantics,emo_sem_emo_sem,3.56036007835064,2,2,2,1,262588.369160176,106,A
61,1,16/9/95,20,M,38,Leo carried the wallet,Sensible,edin_semantics,emo_sem_emo_sem,2.06714554381324,1,2,2,1,262591.180153035,150,A
61,1,16/9/95,20,M,39,Luke fixed the radio,Sensible,edin_semantics,emo_sem_emo_sem,1.33810361044016,1,2,2,1,262593.26178356,112,A
61,1,16/9/95,20,M,40,The scarf knitted Tom,Non-sensible,edin_semantics,emo_sem_emo_sem,8.57136685581645,1,2,2,1,262602.576585606,66,A
61,1,16/9/95,20,M,41,The number dialed Tom,Non-sensible,edin_semantics,emo_sem_emo_sem,1.44333813985577,2,1,1,1,262604.764110381,63,A
61,1,16/9/95,20,M,42,The museum visited Mary,Non-sensible,edin_semantics,emo_sem_emo_sem,1.43194617814152,1,2,2,1,262606.93994685,16,A
61,1,16/9/95,20,M,43,The money offered Matt,Non-sensible,edin_semantics,emo_sem_emo_sem,1.4320565056405,2,1,1,1,262609.115762793,9,A
61,1,16/9/95,20,M,44,Fred chopped the carrots,Sensible,edin_semantics,emo_sem_emo_sem,2.07958241022425,2,2,2,1,262611.938415414,102,A
61,1,16/9/95,20,M,45,Ryan stroked the blanket,Sensible,edin_semantics,emo_sem_emo_sem,1.38574234413682,2,2,2,1,262614.06715741,116,A
61,1,16/9/95,20,M,46,The bushes trimmed Jon,Non-sensible,edin_semantics,emo_sem_emo_sem,1.64348740276182,2,2,2,1,262616.454711821,32,A
61,1,16/9/95,20,M,47,The thread measured Amy,Non-sensible,edin_semantics,emo_sem_emo_sem,1.2679256623378,1,1,1,1,262618.465807117,51,A
61,1,16/9/95,20,M,48,Dan brushed the hair,Sensible,edin_semantics,emo_sem_emo_sem,6.23127446288709,1,1,1,1,262625.440170713,147,A
61,1,16/9/95,20,M,49,Anna polished the trophy,Sensible,edin_semantics,emo_sem_emo_sem,1.44353506166954,1,2,2,1,262627.62769164,104,A
61,1,16/9/95,20,M,50,The towels passed Phil,Non-sensible,edin_semantics,emo_sem_emo_sem,2.84363698645029,1,1,1,1,262631.214831167,43,A
61,1,16/9/95,20,M,51,Lucy cut the ribbon,Sensible,edin_semantics,emo_sem_emo_sem,1.85537789110094,1,1,1,1,262633.814059259,95,A
61,1,16/9/95,20,M,52,The dish served Kate,Non-sensible,edin_semantics,emo_sem_emo_sem,1.17345544626005,1,2,2,1,262635.731140081,70,A
61,1,16/9/95,20,M,53,Alex dusted the house,Sensible,edin_semantics,emo_sem_emo_sem,1.3034164980636,1,2,2,1,262637.777544365,122,A
61,1,16/9/95,20,M,54,The hill climbed Luke,Non-sensible,edin_semantics,emo_sem_emo_sem,1.49123601504834,2,2,2,1,262640.012126089,68,A
61,1,16/9/95,20,M,55,Ian pushed the button,Sensible,edin_semantics,emo_sem_emo_sem,1.95028941740748,1,1,1,1,262642.705463267,101,A
61,1,16/9/95,20,M,56,Alex wrote the report,Sensible,edin_semantics,emo_sem_emo_sem,2.72633954969933,1,1,1,1,262646.17495,149,A
61,1,16/9/95,20,M,57,Joe iced the donut,Sensible,edin_semantics,emo_sem_emo_sem,1.4680877540377,1,1,1,1,262648.386058894,119,A
61,1,16/9/95,20,M,58,Erin tidied the garage,Sensible,edin_semantics,emo_sem_emo_sem,7.60755140817491,2,1,1,1,262656.736413674,77,A
61,1,16/9/95,20,M,59,Hugh dialed the hotline,Sensible,edin_semantics,emo_sem_emo_sem,4.09042978996877,2,2,2,1,262661.570227018,138,A
61,1,16/9/95,20,M,60,The ball squeezed Josh,Non-sensible,edin_semantics,emo_sem_emo_sem,2.9376553085167,2,1,1,1,262665.251446766,1,A
61,1,16/9/95,20,M,61,Emma pulled the rope,Sensible,edin_semantics,emo_sem_emo_sem,2.10234035534086,2,2,2,1,262668.097617117,120,A
61,1,16/9/95,20,M,62,The bill paid Mike,Non-sensible,edin_semantics,emo_sem_emo_sem,2.00850452278974,1,1,1,1,262670.849716548,59,A
61,1,16/9/95,20,M,63,The fence jumped Jon,Non-sensible,edin_semantics,emo_sem_emo_sem,1.91400544194039,1,1,1,1,262673.507731909,17,A
61,1,16/9/95,20,M,64,Fred lent the car,Sensible,edin_semantics,emo_sem_emo_sem,1.87922852812335,1,2,2,1,262676.13046843,94,A
61,1,16/9/95,20,M,65,The coins polished Jon,Non-sensible,edin_semantics,emo_sem_emo_sem,1.51451128098415,2,1,1,1,262678.388587127,29,A
61,1,16/9/95,20,M,66,The wine stored Leo,Non-sensible,edin_semantics,emo_sem_emo_sem,1.23209005291574,1,2,2,1,262680.364447522,52,A
61,1,16/9/95,20,M,67,Owen swallowed the gum,Sensible,edin_semantics,emo_sem_emo_sem,1.40853300271556,2,1,1,1,262682.516736755,97,A
61,1,16/9/95,20,M,68,The kettle got Lily,Non-sensible,edin_semantics,emo_sem_emo_sem,1.74999358557398,2,1,1,1,262685.010117743,13,A
61,1,16/9/95,20,M,69,The puzzle solved Joe,Non-sensible,edin_semantics,emo_sem_emo_sem,1.1144933848409,2,2,2,1,262686.86833721,34,A
61,1,16/9/95,20,M,70,Sara jumped the hedge,Sensible,edin_semantics,emo_sem_emo_sem,1.30291489255615,2,2,2,1,262688.914770679,92,A
61,1,16/9/95,20,M,71,Bill trimmed the hair,Sensible,edin_semantics,emo_sem_emo_sem,1.38547197740991,2,1,1,1,262691.043522939,107,A
61,1,16/9/95,20,M,72,The eggs whisked Dan,Non-sensible,edin_semantics,emo_sem_emo_sem,1.84439997846494,1,2,2,1,262693.630945982,62,A
61,1,16/9/95,20,M,73,John carried the kettle,Sensible,edin_semantics,emo_sem_emo_sem,1.69135609245859,1,1,1,1,262696.065477481,105,A
61,1,16/9/95,20,M,74,The shirt ironed Josh,Non-sensible,edin_semantics,emo_sem_emo_sem,1.22029398445738,2,1,1,1,262698.029608838,55,A
61,1,16/9/95,20,M,75,The pen described John,Non-sensible,edin_semantics,emo_sem_emo_sem,1.32643390540034,1,2,2,1,262700.099562603,42,A
61,1,16/9/95,20,M,76,The mirror kissed Max,Non-sensible,edin_semantics,emo_sem_emo_sem,1.26752412132919,1,1,1,1,262702.110704082,23,A
61,1,16/9/95,20,M,77,The jar labeled Liz,Non-sensible,edin_semantics,emo_sem_emo_sem,1.24244929739507,1,1,1,1,262704.098299609,61,A
61,1,16/9/95,20,M,78,Jay sold the bed,Sensible,edin_semantics,emo_sem_emo_sem,1.44424449355574,2,1,1,1,262706.285884038,113,A
61,1,16/9/95,20,M,79,Liz weighed the sugar,Sensible,edin_semantics,emo_sem_emo_sem,1.30289051786531,2,1,1,1,262708.332311734,139,A
61,1,16/9/95,20,M,80,Zoe paid the debt,Sensible,edin_semantics,emo_sem_emo_sem,1.51503084681463,2,2,2,1,262710.590434601,134,A
61,1,16/9/95,20,M,81,The bucket lent Max,Non-sensible,edin_semantics,emo_sem_emo_sem,1.97372536390321,1,1,1,1,262713.307242363,19,A
61,1,16/9/95,20,M,82,The pill swallowed Luke,Non-sensible,edin_semantics,emo_sem_emo_sem,1.85627911332995,1,2,2,1,262715.906463078,22,A
61,1,16/9/95,20,M,83,The bowl scrubbed Liz,Non-sensible,edin_semantics,emo_sem_emo_sem,1.98539635172347,1,2,2,1,262718.635055683,56,A
61,1,16/9/95,20,M,84,Liam mixed the nuts,Sensible,edin_semantics,emo_sem_emo_sem,1.55019454855938,2,1,1,1,262720.928423394,83,A
61,1,16/9/95,20,M,85,The sheets counted Bill,Non-sensible,edin_semantics,emo_sem_emo_sem,1.25648879987421,1,2,2,1,262722.927830704,48,A
61,1,16/9/95,20,M,86,The box lifted Kate,Non-sensible,edin_semantics,emo_sem_emo_sem,1.35053598665399,1,1,1,1,262725.021343251,69,A
61,1,16/9/95,20,M,87,Lucy wiped the desk,Sensible,edin_semantics,emo_sem_emo_sem,1.17365717893699,1,1,1,1,262726.938362175,115,A
61,1,16/9/95,20,M,88,Max searched the internet,Sensible,edin_semantics,emo_sem_emo_sem,1.25620271789376,1,1,1,1,262728.937750241,85,A
61,1,16/9/95,20,M,89,Rob measured the curtains,Sensible,edin_semantics,emo_sem_emo_sem,1.32630914554466,2,2,2,1,262731.007737361,126,A
61,1,16/9/95,20,M,90,The fruits mixed Jack,Non-sensible,edin_semantics,emo_sem_emo_sem,1.44469831185415,2,2,2,1,262733.195267589,8,A
61,1,16/9/95,20,M,91,Fred stored the rice,Sensible,edin_semantics,emo_sem_emo_sem,1.29169676086167,1,1,1,1,262735.229946042,127,A
61,1,16/9/95,20,M,92,The bike kicked Matt,Non-sensible,edin_semantics,emo_sem_emo_sem,1.43262129300274,1,1,1,1,262737.405728951,39,A
61,1,16/9/95,20,M,93,The lorry dented Lily,Non-sensible,edin_semantics,emo_sem_emo_sem,1.126659884525,2,1,1,1,262739.275725243,71,A
61,1,16/9/95,20,M,94,Lucy counted the shoes,Sensible,edin_semantics,emo_sem_emo_sem,1.12671184109058,2,1,1,1,262741.145768682,123,A
61,1,16/9/95,20,M,95,Josh scrubbed the pot,Sensible,edin_semantics,emo_sem_emo_sem,1.10339359869249,1,1,1,1,262742.992269053,131,A
61,1,16/9/95,20,M,96,The story wrote Ewan,Non-sensible,edin_semantics,emo_sem_emo_sem,2.06744862394407,1,2,2,1,262745.803164733,74,A
61,1,16/9/95,20,M,97,The juice drank Matt,Non-sensible,edin_semantics,emo_sem_emo_sem,1.39742519852007,2,2,2,1,262747.943691573,60,A
61,1,16/9/95,20,M,98,Erin punched the monitor,Sensible,edin_semantics,emo_sem_emo_sem,1.27941929217195,1,1,1,1,262749.966598332,125,A
61,1,16/9/95,20,M,99,Kate wore the dress,Sensible,edin_semantics,emo_sem_emo_sem,1.09160458599217,2,2,2,1,262751.801299428,100,A
61,1,16/9/95,20,M,100,Ian labeled the box,Sensible,edin_semantics,emo_sem_emo_sem,1.91505483660148,1,2,2,1,262754.459335315,136,A
61,1,16/9/95,20,M,101,The room entered Ryan,Non-sensible,edin_semantics,emo_sem_emo_sem,1.5267226814176,2,2,2,1,262756.729202614,58,A
61,1,16/9/95,20,M,102,The plans cancelled Ian,Non-sensible,edin_semantics,emo_sem_emo_sem,2.27959889516933,1,1,1,1,262759.751825536,7,A
61,1,16/9/95,20,M,103,Erin described the church,Sensible,edin_semantics,emo_sem_emo_sem,5.31403039395809,1,1,1,1,262765.808798174,117,A
61,1,16/9/95,20,M,104,The herbs chopped Phil,Non-sensible,edin_semantics,emo_sem_emo_sem,4.98381520388648,1,1,1,1,262771.536440807,27,A
61,1,16/9/95,20,M,105,Phil cancelled the party,Sensible,edin_semantics,emo_sem_emo_sem,1.67855136067374,1,2,2,1,262773.95921729,82,A
61,1,16/9/95,20,M,106,The laptop fixed Jen,Non-sensible,edin_semantics,emo_sem_emo_sem,1.29070060566301,2,1,1,1,262775.993883235,37,A
61,1,16/9/95,20,M,107,The letter typed Phil,Non-sensible,edin_semantics,emo_sem_emo_sem,1.45552131696604,2,1,1,1,262778.193179063,49,A
61,1,16/9/95,20,M,108,Ian mailed the invite,Sensible,edin_semantics,emo_sem_emo_sem,1.45570893795229,1,1,1,1,262780.392539997,89,A
61,1,16/9/95,20,M,109,Adam watched the opera,Sensible,edin_semantics,emo_sem_emo_sem,1.70247576321708,2,2,2,1,262782.838835172,108,A
61,1,16/9/95,20,M,110,Max kicked the door,Sensible,edin_semantics,emo_sem_emo_sem,1.27896707743639,2,2,2,1,262784.861777852,114,A
61,1,16/9/95,20,M,111,Amy lifted the crate,Sensible,edin_semantics,emo_sem_emo_sem,1.26710943086073,2,2,2,1,262786.87290105,144,A
61,1,16/9/95,20,M,112,The cheese grated Andy,Non-sensible,edin_semantics,emo_sem_emo_sem,1.77257288992405,2,1,1,1,262789.389775714,65,A
61,1,16/9/95,20,M,113,Beth washed the pan,Sensible,edin_semantics,emo_sem_emo_sem,1.78433303785278,1,2,2,1,262791.91839,132,A
61,1,16/9/95,20,M,114,Jay painted the portrait,Sensible,edin_semantics,emo_sem_emo_sem,1.56101145996945,1,2,2,1,262794.223591624,110,A
61,1,16/9/95,20,M,115,The paper cut Jon,Non-sensible,edin_semantics,emo_sem_emo_sem,1.6082634057384,1,2,2,1,262796.575824859,20,A
61,1,16/9/95,20,M,116,The gun carried Ryan,Non-sensible,edin_semantics,emo_sem_emo_sem,2.06690404197434,1,1,1,1,262799.386688467,75,A
61,1,16/9/95,20,M,117,The movie watched Ella,Non-sensible,edin_semantics,emo_sem_emo_sem,1.94904919451801,2,1,1,1,262802.080000949,33,A
61,1,16/9/95,20,M,118,Leo passed the salt,Sensible,edin_semantics,emo_sem_emo_sem,1.72592068987433,2,2,2,1,262804.549852341,118,A
61,1,16/9/95,20,M,119,The room tidied Sam,Non-sensible,edin_semantics,emo_sem_emo_sem,1.76086501934333,2,2,2,1,262807.054920032,2,A
61,1,16/9/95,20,M,120,The parcel mailed Rob,Non-sensible,edin_semantics,emo_sem_emo_sem,1.56112916400889,2,2,2,1,262809.360134805,14,A
61,1,16/9/95,20,M,121,Mike ate the steak,Sensible,edin_semantics,emo_sem_emo_sem,1.2317138488288,1,2,2,1,262811.335944205,142,A
61,1,16/9/95,20,M,122,The handle pulled Tim,Non-sensible,edin_semantics,emo_sem_emo_sem,1.25546025193762,1,1,1,1,262813.335485576,73,A
61,1,16/9/95,20,M,123,Tim sniffed the perfume,Sensible,edin_semantics,emo_sem_emo_sem,1.46701430535177,1,1,1,1,262815.546493765,93,A
61,1,16/9/95,20,M,124,Jack posted the gift,Sensible,edin_semantics,emo_sem_emo_sem,1.25566006026929,2,1,1,1,262817.545849439,111,A
61,1,16/9/95,20,M,125,The house built Kate,Non-sensible,edin_semantics,emo_sem_emo_sem,1.22010155266616,2,2,2,1,262819.509949685,46,A
61,1,16/9/95,20,M,126,Ben got the radio,Sensible,edin_semantics,emo_sem_emo_sem,1.23192392016063,1,2,2,1,262821.485813929,88,A
61,1,16/9/95,20,M,127,The floor cleaned Tim,Non-sensible,edin_semantics,emo_sem_emo_sem,1.34974573348882,1,1,1,1,262823.579262332,5,A
61,1,16/9/95,20,M,128,Rose built the shed,Sensible,edin_semantics,emo_sem_emo_sem,1.74910487147281,1,1,1,1,262826.072600023,121,A
61,1,16/9/95,20,M,129,The card posted Erin,Non-sensible,edin_semantics,emo_sem_emo_sem,1.30257653334411,1,2,2,1,262828.119061074,36,A
61,1,16/9/95,20,M,130,Sam sucked the candy,Sensible,edin_semantics,emo_sem_emo_sem,1.40828989719739,2,1,1,1,262830.271333309,87,A
61,1,16/9/95,20,M,131,The flour weighed Jen,Non-sensible,edin_semantics,emo_sem_emo_sem,1.45568488398567,1,2,2,1,262832.470673717,64,A
61,1,16/9/95,20,M,132,The book read Sean,Non-sensible,edin_semantics,emo_sem_emo_sem,1.43241218378535,1,2,2,1,262834.646459512,4,A
61,1,16/9/95,20,M,133,The lesson taught Eve,Non-sensible,edin_semantics,emo_sem_emo_sem,1.46793477074243,1,1,1,1,262836.857544352,15,A
61,1,16/9/95,20,M,134,The papers filed Lara,Non-sensible,edin_semantics,emo_sem_emo_sem,1.47933571261819,1,2,2,1,262839.080412112,24,A
61,1,16/9/95,20,M,135,Tim took the ticket,Sensible,edin_semantics,emo_sem_emo_sem,1.42037782055559,2,2,2,1,262841.244430383,128,A
61,1,16/9/95,20,M,136,The garden watered Jeff,Non-sensible,edin_semantics,emo_sem_emo_sem,1.3026810879237,1,2,2,1,262843.290876039,54,A
61,1,16/9/95,20,M,137,Ian filed the report,Sensible,edin_semantics,emo_sem_emo_sem,1.79699729441199,2,1,1,1,262845.831227702,99,A
61,1,16/9/95,20,M,138,The tomato sliced Liz,Non-sensible,edin_semantics,emo_sem_emo_sem,1.54994631157024,1,1,1,1,262848.12467463,3,A
61,1,16/9/95,20,M,139,The spoon licked Will,Non-sensible,edin_semantics,emo_sem_emo_sem,1.29142831853824,1,1,1,1,262850.15932486,21,A
61,1,16/9/95,20,M,140,The folder carried Dan,Non-sensible,edin_semantics,emo_sem_emo_sem,1.71437317907112,1,2,2,1,262852.617397501,30,A
61,1,16/9/95,20,M,141,Jack cleaned the bath,Sensible,edin_semantics,emo_sem_emo_sem,1.9258816903457,2,2,2,1,262855.287163068,80,A
61,1,16/9/95,20,M,142,Ryan knitted the socks,Sensible,edin_semantics,emo_sem_emo_sem,2.49081972090062,1,1,1,1,262858.521449409,141,A
61,1,16/9/95,20,M,143,The picture painted Ryan,Non-sensible,edin_semantics,emo_sem_emo_sem,2.52517649199581,1,1,1,1,262861.791074565,35,A
61,1,16/9/95,20,M,144,Tom grated the carrots,Sensible,edin_semantics,emo_sem_emo_sem,4.23131070419913,1,2,2,1,262866.76599044,140,A
61,1,16/9/95,20,M,145,The jumper wore Joe,Non-sensible,edin_semantics,emo_sem_emo_sem,2.47843962191837,2,1,1,1,262869.988547102,25,A
61,1,16/9/95,20,M,146,The fur stroked Rob,Non-sensible,edin_semantics,emo_sem_emo_sem,1.60812902421458,2,1,1,1,262872.340760452,41,A
61,1,16/9/95,20,M,147,Ian dented the bowl,Sensible,edin_semantics,emo_sem_emo_sem,1.59642275725491,2,2,2,1,262874.681200184,146,A
61,1,16/9/95,20,M,148,Fred served the dessert,Sensible,edin_semantics,emo_sem_emo_sem,5.5599983066204,2,1,1,1,262880.985175055,145,A
61,1,16/9/95,20,M,149,The toffee chewed Ben,Non-sensible,edin_semantics,emo_sem_emo_sem,1.1965196786914,1,1,1,1,262882.925768476,31,A
61,1,16/9/95,20,M,150,Hugh kissed the rose,Sensible,edin_semantics,emo_sem_emo_sem,1.25571426190436,2,2,2,1,262884.925120943,98,A
61,1,16/9/95,20,M,151,Hugh pulled the lever,Sensible,edin_semantics,emo_sem_emo_sem,1.45955115923425,1,1,1,1,262914.904152614,45,B
61,1,16/9/95,20,M,152,The steak ate Mike,Non-sensible,edin_semantics,emo_sem_emo_sem,1.84023126453394,1,2,2,1,262917.491578544,142,B
61,1,16/9/95,20,M,153,The radio got Ben,Non-sensible,edin_semantics,emo_sem_emo_sem,1.28977757453686,2,2,2,1,262919.526246734,88,B
61,1,16/9/95,20,M,154,Ben chewed the toffee,Sensible,edin_semantics,emo_sem_emo_sem,1.2782723987475,1,1,1,1,262921.549138419,31,B
61,1,16/9/95,20,M,155,The church described Erin,Non-sensible,edin_semantics,emo_sem_emo_sem,1.25532041816041,1,1,1,1,262923.548573952,117,B
61,1,16/9/95,20,M,156,The gum swallowed Owen,Non-sensible,edin_semantics,emo_sem_emo_sem,1.26714759645984,2,1,1,1,262925.559676304,97,B
61,1,16/9/95,20,M,157,Jack mixed the fruits,Sensible,edin_semantics,emo_sem_emo_sem,1.2083401218988,2,2,2,1,262927.512032439,8,B
61,1,16/9/95,20,M,158,The stairs climbed Ben,Non-sensible,edin_semantics,emo_sem_emo_sem,1.47880139376502,1,1,1,1,262929.734868768,143,B
61,1,16/9/95,20,M,159,Ewan wrote the story,Sensible,edin_semantics,emo_sem_emo_sem,1.43201449140906,2,2,2,1,262931.910705558,74,B
61,1,16/9/95,20,M,160,Will licked the spoon,Sensible,edin_semantics,emo_sem_emo_sem,1.84339003224159,1,1,1,1,262934.49815939,21,B
61,1,16/9/95,20,M,161,The bowl dented Ian,Non-sensible,edin_semantics,emo_sem_emo_sem,2.172302779858,1,2,2,1,262937.414866574,146,B
61,1,16/9/95,20,M,162,Dan whisked the eggs,Sensible,edin_semantics,emo_sem_emo_sem,3.87785552733112,2,2,2,1,262942.036988596,62,B
61,1,16/9/95,20,M,163,Ian cancelled the plans,Sensible,edin_semantics,emo_sem_emo_sem,1.32571517274482,2,1,1,1,262944.106921515,7,B
61,1,16/9/95,20,M,164,Tim ate the ham,Sensible,edin_semantics,emo_sem_emo_sem,1.05490720301168,1,1,1,1,262945.906407273,67,B
61,1,16/9/95,20,M,165,The internet searched Max,Non-sensible,edin_semantics,emo_sem_emo_sem,1.16121806751471,2,1,1,1,262947.811682726,85,B
61,1,16/9/95,20,M,166,Ella watched the movie,Sensible,edin_semantics,emo_sem_emo_sem,2.32551921304548,2,1,1,1,262950.881362597,33,B
61,1,16/9/95,20,M,167,The hedge jumped Sara,Non-sensible,edin_semantics,emo_sem_emo_sem,1.58429538534256,1,2,2,1,262953.210026466,92,B
61,1,16/9/95,20,M,168,The plants watered Luke,Non-sensible,edin_semantics,emo_sem_emo_sem,1.09021875646431,2,1,1,1,262955.044738145,129,B
61,1,16/9/95,20,M,169,Jen searched the room,Sensible,edin_semantics,emo_sem_emo_sem,1.56094924034551,1,2,2,1,262957.349924695,10,B
61,1,16/9/95,20,M,170,Matt pushed the trolley,Sensible,edin_semantics,emo_sem_emo_sem,1.25545191316633,1,2,2,1,262959.34942758,26,B
61,1,16/9/95,20,M,171,The donut iced Joe,Non-sensible,edin_semantics,emo_sem_emo_sem,1.07887041260256,1,1,1,1,262961.172263011,119,B
61,1,16/9/95,20,M,172,The dessert served Fred,Non-sensible,edin_semantics,emo_sem_emo_sem,1.83156798552955,2,1,1,1,262963.74799454,145,B
61,1,16/9/95,20,M,173,Lily dented the lorry,Sensible,edin_semantics,emo_sem_emo_sem,1.24402948311763,1,1,1,1,262965.735606744,71,B
61,1,16/9/95,20,M,174,Matt drank the juice,Sensible,edin_semantics,emo_sem_emo_sem,1.0792584833689,1,2,2,1,262967.55855603,60,B
61,1,16/9/95,20,M,175,Rob stroked the fur,Sensible,edin_semantics,emo_sem_emo_sem,1.30269199237227,1,1,1,1,262969.604979237,41,B
61,1,16/9/95,20,M,176,The rice stored Fred,Non-sensible,edin_semantics,emo_sem_emo_sem,1.4203085451154,2,1,1,1,262971.769065179,127,B
61,1,16/9/95,20,M,177,Josh squeezed the ball,Sensible,edin_semantics,emo_sem_emo_sem,1.31458652182482,1,1,1,1,262973.82723795,1,B
61,1,16/9/95,20,M,178,Joe wore the jumper,Sensible,edin_semantics,emo_sem_emo_sem,1.46767306351103,2,1,1,1,262976.038305471,25,B
61,1,16/9/95,20,M,179,Sam tidied the room,Sensible,edin_semantics,emo_sem_emo_sem,1.66723637166433,2,2,2,1,262978.449318278,2,B
61,1,16/9/95,20,M,180,The house dusted Alex,Non-sensible,edin_semantics,emo_sem_emo_sem,1.42047275358345,2,2,2,1,262980.613406466,122,B
61,1,16/9/95,20,M,181,The opera watched Adam,Non-sensible,edin_semantics,emo_sem_emo_sem,1.6660436152597,2,2,2,1,262983.024432422,108,B
61,1,16/9/95,20,M,182,The message typed Eve,Non-sensible,edin_semantics,emo_sem_emo_sem,1.36044397862861,1,2,2,1,262985.129640332,124,B
61,1,16/9/95,20,M,183,Max kissed the mirror,Sensible,edin_semantics,emo_sem_emo_sem,1.26636792701902,2,1,1,1,262987.140820619,23,B
61,1,16/9/95,20,M,184,Kate served the dish,Sensible,edin_semantics,emo_sem_emo_sem,1.2429852199275,2,2,2,1,262989.128432823,70,B
61,1,16/9/95,20,M,185,The pan washed Beth,Non-sensible,edin_semantics,emo_sem_emo_sem,1.97248898970429,1,2,2,1,262991.845193439,132,B
61,1,16/9/95,20,M,186,Carl sold the sofa,Sensible,edin_semantics,emo_sem_emo_sem,1.69060272199567,2,2,2,1,262994.279771442,38,B
61,1,16/9/95,20,M,187,Josh ironed the shirt,Sensible,edin_semantics,emo_sem_emo_sem,1.34804848511703,2,1,1,1,262996.373236523,55,B
61,1,16/9/95,20,M,188,The shed built Rose,Non-sensible,edin_semantics,emo_sem_emo_sem,0.889426450652536,2,1,1,1,262998.008058081,121,B
61,1,16/9/95,20,M,189,The bed sold Jay,Non-sensible,edin_semantics,emo_sem_emo_sem,5.43007798615145,1,1,1,1,263004.182587938,113,B
61,1,16/9/95,20,M,190,Carl brushed the teeth,Sensible,edin_semantics,emo_sem_emo_sem,1.09034127136692,2,2,2,1,263006.017387815,72,B
61,1,16/9/95,20,M,191,Jen fixed the laptop,Sensible,edin_semantics,emo_sem_emo_sem,0.890655448311009,2,1,1,1,263007.652158379,37,B
61,1,16/9/95,20,M,192,The pot scrubbed Josh,Non-sensible,edin_semantics,emo_sem_emo_sem,1.14925939420937,2,1,1,1,263009.545639367,131,B
61,1,16/9/95,20,M,193,Jon trimmed the bushes,Sensible,edin_semantics,emo_sem_emo_sem,1.65528026409447,2,2,2,1,263011.944919929,32,B
61,1,16/9/95,20,M,194,Phil sniffed the milk,Sensible,edin_semantics,emo_sem_emo_sem,1.39649992238265,1,2,2,1,263014.085438751,18,B
61,1,16/9/95,20,M,195,Amy measured the thread,Sensible,edin_semantics,emo_sem_emo_sem,1.1141620814451,2,1,1,1,263015.943711778,51,B
61,1,16/9/95,20,M,196,The report wrote Alex,Non-sensible,edin_semantics,emo_sem_emo_sem,1.60772427608026,2,1,1,1,263018.295936033,149,B
61,1,16/9/95,20,M,197,The rope pulled Emma,Non-sensible,edin_semantics,emo_sem_emo_sem,1.2898224752862,1,2,2,1,263020.330598771,120,B
61,1,16/9/95,20,M,198,Will mashed the potatoes,Sensible,edin_semantics,emo_sem_emo_sem,1.25496570224641,2,2,2,1,263022.329988762,28,B
61,1,16/9/95,20,M,199,Jen weighed the flour,Sensible,edin_semantics,emo_sem_emo_sem,1.18460366106592,1,2,2,1,263024.258806641,64,B
61,1,16/9/95,20,M,200,Phil passed the towels,Sensible,edin_semantics,emo_sem_emo_sem,1.24336912133731,1,1,1,1,263026.246411147,43,B
61,1,16/9/95,20,M,201,The rose kissed Hugh,Non-sensible,edin_semantics,emo_sem_emo_sem,1.26677107159048,1,2,2,1,263028.257557117,98,B
61,1,16/9/95,20,M,202,The wallet carried Leo,Non-sensible,edin_semantics,emo_sem_emo_sem,1.19643853668822,2,2,2,1,263030.198162084,150,B
61,1,16/9/95,20,M,203,Beth wiped the table,Sensible,edin_semantics,emo_sem_emo_sem,1.17278001073282,2,2,2,1,263032.115214363,40,B
61,1,16/9/95,20,M,204,Ryan painted the picture,Sensible,edin_semantics,emo_sem_emo_sem,2.18438589241123,2,1,1,1,263035.043721785,35,B
61,1,16/9/95,20,M,205,Jeff watered the garden,Sensible,edin_semantics,emo_sem_emo_sem,1.25503497762838,1,2,2,1,263037.043116907,54,B
61,1,16/9/95,20,M,206,Mary visited the museum,Sensible,edin_semantics,emo_sem_emo_sem,1.54910249816021,2,2,2,1,263039.336515407,16,B
61,1,16/9/95,20,M,207,Matt offered the money,Sensible,edin_semantics,emo_sem_emo_sem,2.1021030228585,1,1,1,1,263042.182725206,9,B
61,1,16/9/95,20,M,208,Erin crushed the garlic,Sensible,edin_semantics,emo_sem_emo_sem,1.87754763651174,2,2,2,1,263044.805437032,6,B
61,1,16/9/95,20,M,209,The beer drank Jack,Non-sensible,edin_semantics,emo_sem_emo_sem,2.00742113182787,2,1,1,1,263047.55752203,135,B
61,1,16/9/95,20,M,210,Eve taught the lesson,Sensible,edin_semantics,emo_sem_emo_sem,3.53660661936738,1,1,1,1,263051.838582445,15,B
61,1,16/9/95,20,M,211,The socks knitted Ryan,Non-sensible,edin_semantics,emo_sem_emo_sem,2.1725439610309,2,1,1,1,263054.755325229,141,B
61,1,16/9/95,20,M,212,Jane punched the wall,Sensible,edin_semantics,emo_sem_emo_sem,1.99598009994952,2,2,2,1,263057.495634685,50,B
61,1,16/9/95,20,M,213,Ryan entered the room,Sensible,edin_semantics,emo_sem_emo_sem,2.31384020717815,1,2,2,1,263060.553518808,58,B
61,1,16/9/95,20,M,214,The dress wore Kate,Non-sensible,edin_semantics,emo_sem_emo_sem,3.04288149921922,2,2,2,1,263064.340591112,100,B
61,1,16/9/95,20,M,215,The hair trimmed Bill,Non-sensible,edin_semantics,emo_sem_emo_sem,1.84362351614982,1,1,1,1,263066.928076375,107,B
61,1,16/9/95,20,M,216,The fat chewed Adam,Non-sensible,edin_semantics,emo_sem_emo_sem,1.59660364309093,1,2,2,1,263069.268528615,106,B
61,1,16/9/95,20,M,217,Tom dialed the number,Sensible,edin_semantics,emo_sem_emo_sem,1.47873051464558,2,1,1,1,263071.491342494,63,B
61,1,16/9/95,20,M,218,Matt kicked the bike,Sensible,edin_semantics,emo_sem_emo_sem,1.3379365154542,1,1,1,1,263073.573051917,39,B
61,1,16/9/95,20,M,219,Phil chopped the herbs,Sensible,edin_semantics,emo_sem_emo_sem,1.24333063495578,2,1,1,1,263075.560701965,27,B
61,1,16/9/95,20,M,220,The carrots grated Tom,Non-sensible,edin_semantics,emo_sem_emo_sem,1.36142345645931,2,2,2,1,263077.666322641,140,B
61,1,16/9/95,20,M,221,The rules taught Josh,Non-sensible,edin_semantics,emo_sem_emo_sem,1.83097305055708,2,2,2,1,263080.241626331,90,B
61,1,16/9/95,20,M,222,Jon cut the paper,Sensible,edin_semantics,emo_sem_emo_sem,1.50218025210779,2,2,2,1,263082.48797141,20,B
61,1,16/9/95,20,M,223,Jake dusted the shelf,Sensible,edin_semantics,emo_sem_emo_sem,2.07862217555521,2,1,1,1,263085.310622106,47,B
61,1,16/9/95,20,M,224,Lily got the kettle,Sensible,edin_semantics,emo_sem_emo_sem,1.20863037317758,2,1,1,1,263087.262960602,13,B
61,1,16/9/95,20,M,225,Kate lifted the box,Sensible,edin_semantics,emo_sem_emo_sem,1.69017199554946,1,1,1,1,263089.69751423,69,B
61,1,16/9/95,20,M,226,The trousers ironed Eve,Non-sensible,edin_semantics,emo_sem_emo_sem,2.85519187373575,1,2,2,1,263093.29641166,130,B
61,1,16/9/95,20,M,227,The trophy polished Anna,Non-sensible,edin_semantics,emo_sem_emo_sem,1.11396676319418,1,2,2,1,263095.154694309,104,B
61,1,16/9/95,20,M,228,Ryan carried the gun,Sensible,edin_semantics,emo_sem_emo_sem,1.03194143145811,1,1,1,1,263096.930619682,75,B
61,1,16/9/95,20,M,229,The desk wiped Lucy,Non-sensible,edin_semantics,emo_sem_emo_sem,1.21994953154353,1,1,1,1,263098.894669575,115,B
61,1,16/9/95,20,M,230,The crate lifted Amy,Non-sensible,edin_semantics,emo_sem_emo_sem,3.27810145512922,2,2,2,1,263102.91698589,144,B
61,1,16/9/95,20,M,231,The button pushed Ian,Non-sensible,edin_semantics,emo_sem_emo_sem,1.98442296765279,1,1,1,1,263105.645590362,101,B
61,1,16/9/95,20,M,232,Andy grated the cheese,Sensible,edin_semantics,emo_sem_emo_sem,1.10257544287015,2,1,1,1,263107.492029155,65,B
61,1,16/9/95,20,M,233,Bill counted the sheets,Sensible,edin_semantics,emo_sem_emo_sem,1.20832504803548,1,2,2,1,263109.44440357,48,B
61,1,16/9/95,20,M,234,The poster read Luke,Non-sensible,edin_semantics,emo_sem_emo_sem,0.914260093355551,2,1,1,1,263111.102724257,79,B
61,1,16/9/95,20,M,235,The ice crushed Josh,Non-sensible,edin_semantics,emo_sem_emo_sem,1.73741816839902,1,1,1,1,263113.584309818,81,B
61,1,16/9/95,20,M,236,Liz scrubbed the bowl,Sensible,edin_semantics,emo_sem_emo_sem,1.50103752803989,1,2,2,1,263115.830662273,56,B
61,1,16/9/95,20,M,237,The kettle carried John,Non-sensible,edin_semantics,emo_sem_emo_sem,1.43029190617381,1,1,1,1,263118.006465067,105,B
61,1,16/9/95,20,M,238,The rope pulled Andy,Non-sensible,edin_semantics,emo_sem_emo_sem,1.26545163104311,2,2,2,1,263120.017603339,148,B
61,1,16/9/95,20,M,239,The hospital visited Tom,Non-sensible,edin_semantics,emo_sem_emo_sem,1.33625690668123,1,1,1,1,263122.0993474,91,B
61,1,16/9/95,20,M,240,The invite mailed Ian,Non-sensible,edin_semantics,emo_sem_emo_sem,3.88918270368595,2,1,1,1,263126.73319846,89,B
61,1,16/9/95,20,M,241,The ticket took Tim,Non-sensible,edin_semantics,emo_sem_emo_sem,1.56047585810302,1,2,2,1,263129.038393028,128,B
61,1,16/9/95,20,M,242,The party cancelled Phil,Non-sensible,edin_semantics,emo_sem_emo_sem,1.5490210353164,1,2,2,1,263131.331830655,82,B
61,1,16/9/95,20,M,243,Phil typed the letter,Sensible,edin_semantics,emo_sem_emo_sem,1.76100324949948,1,1,1,1,263133.83688231,49,B
61,1,16/9/95,20,M,244,The problem solved Phil,Non-sensible,edin_semantics,emo_sem_emo_sem,1.54927151737502,1,1,1,1,263136.130312881,109,B
61,1,16/9/95,20,M,245,The hair brushed Dan,Non-sensible,edin_semantics,emo_sem_emo_sem,1.37248186970828,2,1,1,1,263138.247326481,147,B
61,1,16/9/95,20,M,246,The office entered Joe,Non-sensible,edin_semantics,emo_sem_emo_sem,1.37259187654126,1,1,1,1,263140.364292935,133,B
61,1,16/9/95,20,M,247,Joe solved the puzzle,Sensible,edin_semantics,emo_sem_emo_sem,1.46670801809523,2,2,2,1,263142.575386435,34,B
61,1,16/9/95,20,M,248,Jon polished the coins,Sensible,edin_semantics,emo_sem_emo_sem,1.33720046392409,1,1,1,1,263144.657062182,29,B
61,1,16/9/95,20,M,249,Dan carried the folder,Sensible,edin_semantics,emo_sem_emo_sem,1.172924975981,2,2,2,1,263146.574170266,30,B
61,1,16/9/95,20,M,250,The debt paid Zoe,Non-sensible,edin_semantics,emo_sem_emo_sem,1.06672957050614,1,2,2,1,263148.385389873,134,B
61,1,16/9/95,20,M,251,The ribbon cut Lucy,Non-sensible,edin_semantics,emo_sem_emo_sem,1.38399827067042,2,1,1,1,263150.514144378,95,B
61,1,16/9/95,20,M,252,The report filed Ian,Non-sensible,edin_semantics,emo_sem_emo_sem,1.24353974423138,1,1,1,1,263152.50178256,99,B
61,1,16/9/95,20,M,253,Kate built the house,Sensible,edin_semantics,emo_sem_emo_sem,1.54845528589794,1,2,2,1,263154.795149949,46,B
61,1,16/9/95,20,M,254,Beth took the photo,Sensible,edin_semantics,emo_sem_emo_sem,1.63094245392131,1,1,1,1,263157.170900914,53,B
61,1,16/9/95,20,M,255,Lara filed the papers,Sensible,edin_semantics,emo_sem_emo_sem,1.24348265613662,1,2,2,1,263159.158541021,24,B
61,1,16/9/95,20,M,256,Liz sliced the tomato,Sensible,edin_semantics,emo_sem_emo_sem,1.49055673077237,2,1,1,1,263161.393143591,3,B
61,1,16/9/95,20,M,257,John described the pen,Sensible,edin_semantics,emo_sem_emo_sem,1.11374674952822,1,2,2,1,263163.251422392,42,B
61,1,16/9/95,20,M,258,The cream whisked Tom,Non-sensible,edin_semantics,emo_sem_emo_sem,1.26690705673536,1,1,1,1,263165.262580549,137,B
61,1,16/9/95,20,M,259,The portrait painted Jay,Non-sensible,edin_semantics,emo_sem_emo_sem,1.30200789740775,1,2,2,1,263167.309019791,110,B
61,1,16/9/95,20,M,260,The onion sliced Liam,Non-sensible,edin_semantics,emo_sem_emo_sem,1.10239551914856,1,2,2,1,263169.155464678,78,B
61,1,16/9/95,20,M,261,Jon jumped the fence,Sensible,edin_semantics,emo_sem_emo_sem,1.45531028340338,1,1,1,1,263171.354835554,17,B
61,1,16/9/95,20,M,262,The perfume sniffed Tim,Non-sensible,edin_semantics,emo_sem_emo_sem,1.37272176798433,2,1,1,1,263173.471817082,93,B
61,1,16/9/95,20,M,263,The sugar weighed Liz,Non-sensible,edin_semantics,emo_sem_emo_sem,1.60780670098029,1,1,1,1,263175.824029791,139,B
61,1,16/9/95,20,M,264,Leo stored the wine,Sensible,edin_semantics,emo_sem_emo_sem,1.57224883482559,2,2,2,1,263178.140929343,52,B
61,1,16/9/95,20,M,265,The turnip mashed Ella,Non-sensible,edin_semantics,emo_sem_emo_sem,1.14926997799193,1,1,1,1,263180.034472551,103,B
61,1,16/9/95,20,M,266,The sweets offered Tom,Non-sensible,edin_semantics,emo_sem_emo_sem,0.808312924869824,2,2,2,1,263181.586951265,84,B
61,1,16/9/95,20,M,267,Mark washed the dishes,Sensible,edin_semantics,emo_sem_emo_sem,0.867277872748673,1,1,1,1,263183.198216286,57,B
61,1,16/9/95,20,M,268,The salt passed Leo,Non-sensible,edin_semantics,emo_sem_emo_sem,1.19569639139809,2,2,2,1,263185.138786294,118,B
61,1,16/9/95,20,M,269,Tom knitted the scarf,Sensible,edin_semantics,emo_sem_emo_sem,1.17278193501988,1,2,2,1,263187.055851722,66,B
61,1,16/9/95,20,M,270,The shoes counted Lucy,Non-sensible,edin_semantics,emo_sem_emo_sem,1.17269117134856,1,1,1,1,263188.972909132,123,B
61,1,16/9/95,20,M,271,The garage tidied Erin,Non-sensible,edin_semantics,emo_sem_emo_sem,1.2318068575114,1,1,1,1,263190.948819559,77,B
61,1,16/9/95,20,M,272,The box labeled Ian,Non-sensible,edin_semantics,emo_sem_emo_sem,1.45512490748661,2,2,2,1,263193.148086843,136,B
61,1,16/9/95,20,M,273,Leah sucked the lolly,Sensible,edin_semantics,emo_sem_emo_sem,1.18392822553869,1,2,2,1,263195.076934228,12,B
61,1,16/9/95,20,M,274,The nuts mixed Liam,Non-sensible,edin_semantics,emo_sem_emo_sem,1.31386554409983,1,1,1,1,263197.135124638,83,B
61,1,16/9/95,20,M,275,The hotline dialed Hugh,Non-sensible,edin_semantics,emo_sem_emo_sem,1.34929640521295,2,2,2,1,263199.228637506,138,B
61,1,16/9/95,20,M,276,The gift posted Jack,Non-sensible,edin_semantics,emo_sem_emo_sem,1.23145663161995,1,1,1,1,263201.204440492,111,B
61,1,16/9/95,20,M,277,Tim pulled the handle,Sensible,edin_semantics,emo_sem_emo_sem,1.20829425897682,2,1,1,1,263203.156802399,73,B
61,1,16/9/95,20,M,278,The plate licked Jane,Non-sensible,edin_semantics,emo_sem_emo_sem,1.31376772461226,2,2,2,1,263205.214994734,96,B
61,1,16/9/95,20,M,279,The curtains measured Rob,Non-sensible,edin_semantics,emo_sem_emo_sem,1.24298169201938,2,2,2,1,263207.20261271,126,B
61,1,16/9/95,20,M,280,The lemon squeezed Jay,Non-sensible,edin_semantics,emo_sem_emo_sem,1.26690000091912,1,2,2,1,263209.213773113,76,B
61,1,16/9/95,20,M,281,The pillow hugged Kate,Non-sensible,edin_semantics,emo_sem_emo_sem,4.3014251497807,2,2,2,1,263214.259280985,86,B
61,1,16/9/95,20,M,282,Amy hugged the tree,Sensible,edin_semantics,emo_sem_emo_sem,1.39668593974784,1,1,1,1,263216.399777036,11,B
61,1,16/9/95,20,M,283,The carrots chopped Fred,Non-sensible,edin_semantics,emo_sem_emo_sem,1.384672102693,2,2,2,1,263218.528563291,102,B
61,1,16/9/95,20,M,284,Max lent the bucket,Sensible,edin_semantics,emo_sem_emo_sem,3.84265815006802,1,1,1,1,263223.115360931,19,B
61,1,16/9/95,20,M,285,The monitor punched Erin,Non-sensible,edin_semantics,emo_sem_emo_sem,1.05523561988957,2,1,1,1,263224.914831936,125,B
61,1,16/9/95,20,M,286,Liz labeled the jar,Sensible,edin_semantics,emo_sem_emo_sem,1.36070600658422,1,1,1,1,263227.020046581,61,B
61,1,16/9/95,20,M,287,Rob mailed the parcel,Sensible,edin_semantics,emo_sem_emo_sem,1.06709070078796,2,2,2,1,263228.831271641,14,B
61,1,16/9/95,20,M,288,The candy sucked Sam,Non-sensible,edin_semantics,emo_sem_emo_sem,1.70222592260689,2,1,1,1,263231.277562005,87,B
61,1,16/9/95,20,M,289,Tim cleaned the floor,Sensible,edin_semantics,emo_sem_emo_sem,1.02007576683536,1,1,1,1,263233.041743586,5,B
61,1,16/9/95,20,M,290,Mike paid the bill,Sensible,edin_semantics,emo_sem_emo_sem,0.902635289123282,2,1,1,1,263234.688293541,59,B
61,1,16/9/95,20,M,291,The blanket stroked Ryan,Non-sensible,edin_semantics,emo_sem_emo_sem,1.06739185651531,1,2,2,1,263236.499524693,116,B
61,1,16/9/95,20,M,292,Luke swallowed the pill,Sensible,edin_semantics,emo_sem_emo_sem,1.22033760236809,2,2,2,1,263238.463622054,22,B
61,1,16/9/95,20,M,293,Luke climbed the hill,Sensible,edin_semantics,emo_sem_emo_sem,1.04386803286616,2,2,2,1,263240.251275823,68,B
61,1,16/9/95,20,M,294,Sean read the book,Sensible,edin_semantics,emo_sem_emo_sem,1.11440807342296,2,2,2,1,263242.109571942,4,B
61,1,16/9/95,20,M,295,The radio fixed Luke,Non-sensible,edin_semantics,emo_sem_emo_sem,0.995740201731678,1,2,2,1,263243.850174856,112,B
61,1,16/9/95,20,M,296,The car lent Fred,Non-sensible,edin_semantics,emo_sem_emo_sem,0.971946011355612,1,2,2,1,263245.56731745,94,B
61,1,16/9/95,20,M,297,Mary iced the cake,Sensible,edin_semantics,emo_sem_emo_sem,0.855371476733126,2,2,2,1,263247.166799231,44,B
61,1,16/9/95,20,M,298,The bath cleaned Jack,Non-sensible,edin_semantics,emo_sem_emo_sem,1.02016043680487,2,2,2,1,263248.930980171,80,B
61,1,16/9/95,20,M,299,Erin posted the card,Sensible,edin_semantics,emo_sem_emo_sem,2.60782273695804,1,2,2,1,263252.282933417,36,B
61,1,16/9/95,20,M,300,The door kicked Max,Non-sensible,edin_semantics,emo_sem_emo_sem,1.25532362534432,2,2,2,1,263254.28224836,114,B
