subject_column,AssignedList_column,subject_dob_column,subject_age_column,subject_gender_column,trialnum_column,Stim_column,Type_column,Experiment_column,OrderGroup_column,ReactionTime_column,StimSide_column,StimPosition_column,Response_column,Valid_column,TrialEndSecs_column,PairID_column,List_column
63,3,8/9/92,23,F,1,Tim pulled the handle,Sensible,edin_semantics,emo_sem_emo_sem,0.989443192258477,1,1,1,1,330693.445734236,73,B
63,3,8/9/92,23,F,2,John described the pen,Sensible,edin_semantics,emo_sem_emo_sem,1.41727678233292,1,2,2,1,330695.609791956,42,B
63,3,8/9/92,23,F,3,Ryan entered the room,Sensible,edin_semantics,emo_sem_emo_sem,1.39372313173953,2,2,2,1,330697.750311098,58,B
63,3,8/9/92,23,F,4,The desk wiped Lucy,Non-sensible,edin_semantics,emo_sem_emo_sem,0.971225033572409,2,1,1,1,330699.467400452,115,B
63,3,8/9/92,23,F,5,Lily dented the lorry,Sensible,edin_semantics,emo_sem_emo_sem,1.49139092257246,2,1,1,1,330701.702061393,71,B
63,3,8/9/92,23,F,6,The radio got Ben,Non-sensible,edin_semantics,emo_sem_emo_sem,2.53784331434872,1,2,2,1,330704.983370045,88,B
63,3,8/9/92,23,F,7,The stairs climbed Ben,Non-sensible,edin_semantics,emo_sem_emo_sem,1.43277459696401,1,1,1,1,330707.15920908,143,B
63,3,8/9/92,23,F,8,Dan whisked the eggs,Sensible,edin_semantics,emo_sem_emo_sem,1.03299916483229,2,2,2,1,330708.935140225,62,B
63,3,8/9/92,23,F,9,Jon trimmed the bushes,Sensible,edin_semantics,emo_sem_emo_sem,1.70327692088904,1,2,2,1,330711.381444059,32,B
63,3,8/9/92,23,F,10,The pillow hugged Kate,Non-sensible,edin_semantics,emo_sem_emo_sem,1.02081117697526,2,2,2,1,330713.145577853,86,B
63,3,8/9/92,23,F,11,The rice stored Fred,Non-sensible,edin_semantics,emo_sem_emo_sem,1.07991788297659,2,1,1,1,330714.968550232,127,B
63,3,8/9/92,23,F,12,The car lent Fred,Non-sensible,edin_semantics,emo_sem_emo_sem,1.02106230042409,2,2,2,1,330716.732736624,94,B
63,3,8/9/92,23,F,13,Jon polished the coins,Sensible,edin_semantics,emo_sem_emo_sem,0.726854625507258,2,1,1,1,330718.20286191,29,B
63,3,8/9/92,23,F,14,Liz labeled the jar,Sensible,edin_semantics,emo_sem_emo_sem,1.35058505675988,2,1,1,1,330720.296339498,61,B
63,3,8/9/92,23,F,15,The ticket took Tim,Non-sensible,edin_semantics,emo_sem_emo_sem,0.750220013665967,2,2,2,1,330721.789942745,128,B
63,3,8/9/92,23,F,16,The church described Erin,Non-sensible,edin_semantics,emo_sem_emo_sem,0.879680101410486,1,1,1,1,330723.413034624,117,B
63,3,8/9/92,23,F,17,Ryan painted the picture,Sensible,edin_semantics,emo_sem_emo_sem,1.37356590211857,2,1,1,1,330725.529984721,35,B
63,3,8/9/92,23,F,18,Jen weighed the flour,Sensible,edin_semantics,emo_sem_emo_sem,1.2915553234634,1,2,2,1,330727.564695246,64,B
63,3,8/9/92,23,F,19,Ewan wrote the story,Sensible,edin_semantics,emo_sem_emo_sem,1.69109053653665,1,2,2,1,330729.999225783,74,B
63,3,8/9/92,23,F,20,Jane punched the wall,Sensible,edin_semantics,emo_sem_emo_sem,1.47949960036203,1,2,2,1,330732.222091618,50,B
63,3,8/9/92,23,F,21,Joe wore the jumper,Sensible,edin_semantics,emo_sem_emo_sem,1.07955963909626,1,1,1,1,330734.045041867,25,B
63,3,8/9/92,23,F,22,The monitor punched Erin,Non-sensible,edin_semantics,emo_sem_emo_sem,0.950235536496621,2,1,1,1,330735.738645883,125,B
63,3,8/9/92,23,F,23,The crate lifted Amy,Non-sensible,edin_semantics,emo_sem_emo_sem,1.71490685659228,1,2,2,1,330738.196766954,144,B
63,3,8/9/92,23,F,24,Kate lifted the box,Sensible,edin_semantics,emo_sem_emo_sem,1.27960466814693,1,1,1,1,330740.21961887,69,B
63,3,8/9/92,23,F,25,The kettle carried John,Non-sensible,edin_semantics,emo_sem_emo_sem,2.32636110205203,1,1,1,1,330743.289292326,105,B
63,3,8/9/92,23,F,26,Jack mixed the fruits,Sensible,edin_semantics,emo_sem_emo_sem,0.926865337532945,2,2,2,1,330744.959339164,8,B
63,3,8/9/92,23,F,27,Tom knitted the scarf,Sensible,edin_semantics,emo_sem_emo_sem,1.65621452039341,1,2,2,1,330747.35862646,66,B
63,3,8/9/92,23,F,28,The house dusted Alex,Non-sensible,edin_semantics,emo_sem_emo_sem,1.43248113850132,2,2,2,1,330749.53442316,122,B
63,3,8/9/92,23,F,29,Rob mailed the parcel,Sensible,edin_semantics,emo_sem_emo_sem,1.10299622704042,2,2,2,1,330751.380898195,14,B
63,3,8/9/92,23,F,30,Matt kicked the bike,Sensible,edin_semantics,emo_sem_emo_sem,0.915214875712991,1,1,1,1,330753.039250953,39,B
63,3,8/9/92,23,F,31,Tim cleaned the floor,Sensible,edin_semantics,emo_sem_emo_sem,1.37385551194893,1,1,1,1,330755.156228311,5,B
63,3,8/9/92,23,F,32,The nuts mixed Liam,Non-sensible,edin_semantics,emo_sem_emo_sem,1.10299718921306,2,1,1,1,330757.002710402,83,B
63,3,8/9/92,23,F,33,The message typed Eve,Non-sensible,edin_semantics,emo_sem_emo_sem,1.13860444619786,1,2,2,1,330758.884476784,124,B
63,3,8/9/92,23,F,34,Amy measured the thread,Sensible,edin_semantics,emo_sem_emo_sem,2.40837585006375,1,1,1,1,330762.036461975,51,B
63,3,8/9/92,23,F,35,The perfume sniffed Tim,Non-sensible,edin_semantics,emo_sem_emo_sem,1.11492443201132,1,1,1,1,330763.894716721,93,B
63,3,8/9/92,23,F,36,Will mashed the potatoes,Sensible,edin_semantics,emo_sem_emo_sem,1.51509883935796,2,2,2,1,330766.152882885,28,B
63,3,8/9/92,23,F,37,The candy sucked Sam,Non-sensible,edin_semantics,emo_sem_emo_sem,1.20910984900547,1,1,1,1,330768.10519476,87,B
63,3,8/9/92,23,F,38,Phil passed the towels,Sensible,edin_semantics,emo_sem_emo_sem,1.09186821762705,1,1,1,1,330769.939922796,43,B
63,3,8/9/92,23,F,39,The curtains measured Rob,Non-sensible,edin_semantics,emo_sem_emo_sem,0.926729352388065,1,2,2,1,330771.610002027,126,B
63,3,8/9/92,23,F,40,The invite mailed Ian,Non-sensible,edin_semantics,emo_sem_emo_sem,1.3026111710933,1,1,1,1,330773.656420422,89,B
63,3,8/9/92,23,F,41,Mike paid the bill,Sensible,edin_semantics,emo_sem_emo_sem,1.11506843520328,2,1,1,1,330775.514664585,59,B
63,3,8/9/92,23,F,42,Will licked the spoon,Sensible,edin_semantics,emo_sem_emo_sem,1.04435873392504,1,1,1,1,330777.302385384,21,B
63,3,8/9/92,23,F,43,The socks knitted Ryan,Non-sensible,edin_semantics,emo_sem_emo_sem,1.07954135804903,2,1,1,1,330779.125350707,141,B
63,3,8/9/92,23,F,44,The pot scrubbed Josh,Non-sensible,edin_semantics,emo_sem_emo_sem,0.985276402614545,1,1,1,1,330780.854220093,131,B
63,3,8/9/92,23,F,45,The box labeled Ian,Non-sensible,edin_semantics,emo_sem_emo_sem,0.891713181685191,1,2,2,1,330782.489014711,136,B
63,3,8/9/92,23,F,46,Carl sold the sofa,Sensible,edin_semantics,emo_sem_emo_sem,1.86794561106944,1,2,2,1,330785.09999365,38,B
63,3,8/9/92,23,F,47,The rope pulled Emma,Non-sensible,edin_semantics,emo_sem_emo_sem,1.7852406744496,1,2,2,1,330787.628633272,120,B
63,3,8/9/92,23,F,48,The party cancelled Phil,Non-sensible,edin_semantics,emo_sem_emo_sem,0.962185871147085,2,2,2,1,330789.334000323,82,B
63,3,8/9/92,23,F,49,Leah sucked the lolly,Sensible,edin_semantics,emo_sem_emo_sem,1.07923827803461,2,2,2,1,330791.156946082,12,B
63,3,8/9/92,23,F,50,Jon jumped the fence,Sensible,edin_semantics,emo_sem_emo_sem,0.961990552896168,2,1,1,1,330792.862281702,17,B
63,3,8/9/92,23,F,51,Tim ate the ham,Sensible,edin_semantics,emo_sem_emo_sem,1.44398759712931,1,1,1,1,330795.049864528,67,B
63,3,8/9/92,23,F,52,The onion sliced Liam,Non-sensible,edin_semantics,emo_sem_emo_sem,0.820812010846566,2,2,2,1,330796.614102428,78,B
63,3,8/9/92,23,F,53,The hospital visited Tom,Non-sensible,edin_semantics,emo_sem_emo_sem,0.891484829306137,1,1,1,1,330798.248900252,91,B
63,3,8/9/92,23,F,54,Ryan carried the gun,Sensible,edin_semantics,emo_sem_emo_sem,1.19717266393127,2,1,1,1,330800.189451338,75,B
63,3,8/9/92,23,F,55,Carl brushed the teeth,Sensible,edin_semantics,emo_sem_emo_sem,2.1501936505083,1,2,2,1,330803.082702371,72,B
63,3,8/9/92,23,F,56,Tom dialed the number,Sensible,edin_semantics,emo_sem_emo_sem,1.33860553667182,1,1,1,1,330805.164412756,63,B
63,3,8/9/92,23,F,57,Erin posted the card,Sensible,edin_semantics,emo_sem_emo_sem,1.7151894106064,1,2,2,1,330807.622491171,36,B
63,3,8/9/92,23,F,58,The report filed Ian,Non-sensible,edin_semantics,emo_sem_emo_sem,1.12650112831034,2,1,1,1,330809.492500933,99,B
63,3,8/9/92,23,F,59,The hair trimmed Bill,Non-sensible,edin_semantics,emo_sem_emo_sem,1.20924647559877,1,1,1,1,330811.444823392,107,B
63,3,8/9/92,23,F,60,The door kicked Max,Non-sensible,edin_semantics,emo_sem_emo_sem,1.75021680648206,2,2,2,1,330813.938160442,114,B
63,3,8/9/92,23,F,61,The hedge jumped Sara,Non-sensible,edin_semantics,emo_sem_emo_sem,1.53881605702918,2,2,1,0,330816.219854278,92,B
63,3,8/9/92,23,F,62,Dan carried the folder,Sensible,edin_semantics,emo_sem_emo_sem,2.07964655413525,1,2,2,1,330819.042510106,30,B
63,3,8/9/92,23,F,63,The steak ate Mike,Non-sensible,edin_semantics,emo_sem_emo_sem,5.84297181386501,1,2,2,1,330825.628722112,142,B
63,3,8/9/92,23,F,64,Josh squeezed the ball,Sensible,edin_semantics,emo_sem_emo_sem,1.52602896484314,2,1,1,1,330827.898625011,1,B
63,3,8/9/92,23,F,65,Andy grated the cheese,Sensible,edin_semantics,emo_sem_emo_sem,1.2559163152473,1,1,1,1,330829.897998325,65,B
63,3,8/9/92,23,F,66,The rose kissed Hugh,Non-sensible,edin_semantics,emo_sem_emo_sem,1.73771900346037,1,2,2,1,330832.379615637,98,B
63,3,8/9/92,23,F,67,The garage tidied Erin,Non-sensible,edin_semantics,emo_sem_emo_sem,1.4910137563129,2,1,1,1,330834.614208586,77,B
63,3,8/9/92,23,F,68,The wallet carried Leo,Non-sensible,edin_semantics,emo_sem_emo_sem,6.13661887089256,1,2,2,1,330841.494430703,150,B
63,3,8/9/92,23,F,69,Eve taught the lesson,Sensible,edin_semantics,emo_sem_emo_sem,1.91458305803826,1,1,1,1,330844.152449592,15,B
63,3,8/9/92,23,F,70,Matt drank the juice,Sensible,edin_semantics,emo_sem_emo_sem,2.99693841027329,1,2,2,1,330847.892497983,60,B
63,3,8/9/92,23,F,71,Jake dusted the shelf,Sensible,edin_semantics,emo_sem_emo_sem,1.17333325208165,1,1,1,1,330849.809537432,47,B
63,3,8/9/92,23,F,72,The hair brushed Dan,Non-sensible,edin_semantics,emo_sem_emo_sem,1.03260564187076,2,1,1,1,330851.585474672,147,B
63,3,8/9/92,23,F,73,Bill counted the sheets,Sensible,edin_semantics,emo_sem_emo_sem,2.39716060482897,1,2,2,1,330854.7256577,48,B
63,3,8/9/92,23,F,74,Jen searched the room,Sensible,edin_semantics,emo_sem_emo_sem,0.926912483351771,2,2,2,1,330856.395761626,10,B
63,3,8/9/92,23,F,75,Joe solved the puzzle,Sensible,edin_semantics,emo_sem_emo_sem,1.76156098098727,2,2,2,1,330858.900868124,34,B
63,3,8/9/92,23,F,76,Sean read the book,Sensible,edin_semantics,emo_sem_emo_sem,2.26722681423416,2,2,2,1,330861.911683111,4,B
63,3,8/9/92,23,F,77,Beth took the photo,Sensible,edin_semantics,emo_sem_emo_sem,0.938233245280571,2,1,1,1,330863.593499077,53,B
63,3,8/9/92,23,F,78,The beer drank Jack,Non-sensible,edin_semantics,emo_sem_emo_sem,1.30328821024159,2,1,1,1,330865.639944734,135,B
63,3,8/9/92,23,F,79,The trousers ironed Eve,Non-sensible,edin_semantics,emo_sem_emo_sem,1.51511615823256,2,2,2,1,330867.898102879,130,B
63,3,8/9/92,23,F,80,The bowl dented Ian,Non-sensible,edin_semantics,emo_sem_emo_sem,1.45605339086615,1,2,2,1,330870.097410894,146,B
63,3,8/9/92,23,F,81,The sweets offered Tom,Non-sensible,edin_semantics,emo_sem_emo_sem,1.24445924744941,2,2,2,1,330872.08503272,84,B
63,3,8/9/92,23,F,82,Sam tidied the room,Sensible,edin_semantics,emo_sem_emo_sem,0.797475166677032,2,2,2,1,330873.62575321,2,B
63,3,8/9/92,23,F,83,The gift posted Jack,Non-sensible,edin_semantics,emo_sem_emo_sem,1.30344504216919,1,1,1,1,330875.672166153,111,B
63,3,8/9/92,23,F,84,The pan washed Beth,Non-sensible,edin_semantics,emo_sem_emo_sem,1.98535145103233,1,2,2,1,330878.400763569,132,B
63,3,8/9/92,23,F,85,The opera watched Adam,Non-sensible,edin_semantics,emo_sem_emo_sem,0.973475202627014,1,2,2,1,330880.117881788,108,B
63,3,8/9/92,23,F,86,The button pushed Ian,Non-sensible,edin_semantics,emo_sem_emo_sem,1.24435629643267,1,1,1,1,330882.105483087,101,B
63,3,8/9/92,23,F,87,Liz sliced the tomato,Sensible,edin_semantics,emo_sem_emo_sem,2.86750494228909,1,1,1,1,330885.716172096,3,B
63,3,8/9/92,23,F,88,The shed built Rose,Non-sensible,edin_semantics,emo_sem_emo_sem,0.797689728147816,2,1,1,1,330887.256866287,121,B
63,3,8/9/92,23,F,89,Ian cancelled the plans,Sensible,edin_semantics,emo_sem_emo_sem,2.490987778001,1,1,1,1,330890.491164495,7,B
63,3,8/9/92,23,F,90,The sugar weighed Liz,Non-sensible,edin_semantics,emo_sem_emo_sem,9.48914043291006,1,1,1,1,330900.723363913,139,B
63,3,8/9/92,23,F,91,The carrots chopped Fred,Non-sensible,edin_semantics,emo_sem_emo_sem,1.17335955111776,1,2,2,1,330902.640404325,102,B
63,3,8/9/92,23,F,92,Lara filed the papers,Sensible,edin_semantics,emo_sem_emo_sem,1.10261392925167,2,2,2,1,330904.486874869,24,B
63,3,8/9/92,23,F,93,The salt passed Leo,Non-sensible,edin_semantics,emo_sem_emo_sem,0.86753348633647,2,2,2,1,330906.09813989,118,B
63,3,8/9/92,23,F,94,The report wrote Alex,Non-sensible,edin_semantics,emo_sem_emo_sem,1.27985996095231,2,1,1,1,330908.121072628,149,B
63,3,8/9/92,23,F,95,The ribbon cut Lucy,Non-sensible,edin_semantics,emo_sem_emo_sem,1.25615845859284,2,1,1,1,330910.120425415,95,B
63,3,8/9/92,23,F,96,The hotline dialed Hugh,Non-sensible,edin_semantics,emo_sem_emo_sem,2.46783983771456,1,2,2,1,330913.331172859,138,B
63,3,8/9/92,23,F,97,Mark washed the dishes,Sensible,edin_semantics,emo_sem_emo_sem,1.25585666141706,1,1,1,1,330915.330590111,57,B
63,3,8/9/92,23,F,98,The radio fixed Luke,Non-sensible,edin_semantics,emo_sem_emo_sem,2.18495420762338,2,2,2,1,330918.259087912,112,B
63,3,8/9/92,23,F,99,Jon cut the paper,Sensible,edin_semantics,emo_sem_emo_sem,2.70299276325386,1,2,2,1,330921.705143509,20,B
63,3,8/9/92,23,F,100,The fat chewed Adam,Non-sensible,edin_semantics,emo_sem_emo_sem,2.64446848415537,1,2,2,1,330925.092331337,106,B
63,3,8/9/92,23,F,101,The blanket stroked Ryan,Non-sensible,edin_semantics,emo_sem_emo_sem,2.32635180122452,1,2,2,1,330928.161945139,116,B
63,3,8/9/92,23,F,102,Lily got the kettle,Sensible,edin_semantics,emo_sem_emo_sem,1.05646237253677,2,1,1,1,330929.961413578,13,B
63,3,8/9/92,23,F,103,The turnip mashed Ella,Non-sensible,edin_semantics,emo_sem_emo_sem,2.67936855432345,2,1,1,1,330933.383889226,103,B
63,3,8/9/92,23,F,104,The office entered Joe,Non-sensible,edin_semantics,emo_sem_emo_sem,1.16200928291073,2,1,1,1,330935.289168528,133,B
63,3,8/9/92,23,F,105,The portrait painted Jay,Non-sensible,edin_semantics,emo_sem_emo_sem,0.856020934006665,2,2,2,1,330936.888714132,110,B
63,3,8/9/92,23,F,106,Amy hugged the tree,Sensible,edin_semantics,emo_sem_emo_sem,1.17335602320964,1,1,1,1,330938.805752299,11,B
63,3,8/9/92,23,F,107,Rob stroked the fur,Sensible,edin_semantics,emo_sem_emo_sem,1.84427874640096,1,1,1,1,330941.393197472,41,B
63,3,8/9/92,23,F,108,The cream whisked Tom,Non-sensible,edin_semantics,emo_sem_emo_sem,2.63083918218035,1,1,1,1,330944.768609437,137,B
63,3,8/9/92,23,F,109,Mary iced the cake,Sensible,edin_semantics,emo_sem_emo_sem,1.63095528271515,2,2,2,1,330947.144370985,44,B
63,3,8/9/92,23,F,110,Jen fixed the laptop,Sensible,edin_semantics,emo_sem_emo_sem,1.26767165237106,1,1,1,1,330949.155532029,37,B
63,3,8/9/92,23,F,111,The bath cleaned Jack,Non-sensible,edin_semantics,emo_sem_emo_sem,1.0914859197801,1,2,2,1,330950.990244671,80,B
63,3,8/9/92,23,F,112,The bed sold Jay,Non-sensible,edin_semantics,emo_sem_emo_sem,0.785511682566721,2,1,1,1,330952.519162999,113,B
63,3,8/9/92,23,F,113,The poster read Luke,Non-sensible,edin_semantics,emo_sem_emo_sem,1.23229563422501,2,1,1,1,330954.495021469,79,B
63,3,8/9/92,23,F,114,Matt pushed the trolley,Sensible,edin_semantics,emo_sem_emo_sem,1.88952811877243,2,2,2,1,330957.129519421,26,B
63,3,8/9/92,23,F,115,Phil typed the letter,Sensible,edin_semantics,emo_sem_emo_sem,1.54949890763965,1,1,1,1,330959.422954803,49,B
63,3,8/9/92,23,F,116,Phil chopped the herbs,Sensible,edin_semantics,emo_sem_emo_sem,1.67917419824516,1,1,1,1,330961.845744114,27,B
63,3,8/9/92,23,F,117,Leo stored the wine,Sensible,edin_semantics,emo_sem_emo_sem,0.961907486547716,2,2,2,1,330963.551118221,52,B
63,3,8/9/92,23,F,118,The gum swallowed Owen,Non-sensible,edin_semantics,emo_sem_emo_sem,0.843728391511831,2,1,1,1,330965.138881548,97,B
63,3,8/9/92,23,F,119,The dress wore Kate,Non-sensible,edin_semantics,emo_sem_emo_sem,3.02017486916156,1,2,2,1,330968.902380317,100,B
63,3,8/9/92,23,F,120,The plate licked Jane,Non-sensible,edin_semantics,emo_sem_emo_sem,1.07871903292835,1,2,2,1,330970.725348205,96,B
63,3,8/9/92,23,F,121,The ice crushed Josh,Non-sensible,edin_semantics,emo_sem_emo_sem,1.22000629891409,2,1,1,1,330972.689458715,81,B
63,3,8/9/92,23,F,122,Erin crushed the garlic,Sensible,edin_semantics,emo_sem_emo_sem,1.5966203205171,1,2,2,1,330975.029901655,6,B
63,3,8/9/92,23,F,123,Phil sniffed the milk,Sensible,edin_semantics,emo_sem_emo_sem,1.73731810390018,1,2,2,1,330977.511562585,18,B
63,3,8/9/92,23,F,124,The carrots grated Tom,Non-sensible,edin_semantics,emo_sem_emo_sem,0.78405304957414,2,2,2,1,330979.040457821,140,B
63,3,8/9/92,23,F,125,Jeff watered the garden,Sensible,edin_semantics,emo_sem_emo_sem,2.17204876989126,1,2,2,1,330981.957210868,54,B
63,3,8/9/92,23,F,126,The donut iced Joe,Non-sensible,edin_semantics,emo_sem_emo_sem,2.41910873289453,1,1,1,1,330985.120927983,119,B
63,3,8/9/92,23,F,127,Ben chewed the toffee,Sensible,edin_semantics,emo_sem_emo_sem,1.37209411966614,1,1,1,1,330987.237930358,31,B
63,3,8/9/92,23,F,128,The lemon squeezed Jay,Non-sensible,edin_semantics,emo_sem_emo_sem,0.948933735489845,1,2,2,1,330988.931547524,76,B
63,3,8/9/92,23,F,129,Hugh pulled the lever,Sensible,edin_semantics,emo_sem_emo_sem,2.13720129773719,1,1,1,1,330991.813040653,45,B
63,3,8/9/92,23,F,130,The rules taught Josh,Non-sensible,edin_semantics,emo_sem_emo_sem,1.25517930148635,1,2,2,1,330993.81237067,90,B
63,3,8/9/92,23,F,131,Max lent the bucket,Sensible,edin_semantics,emo_sem_emo_sem,1.17281849705614,2,1,1,1,330995.729430004,19,B
63,3,8/9/92,23,F,132,The rope pulled Andy,Non-sensible,edin_semantics,emo_sem_emo_sem,1.61988596495939,1,2,2,1,330998.093414407,148,B
63,3,8/9/92,23,F,133,Liz scrubbed the bowl,Sensible,edin_semantics,emo_sem_emo_sem,2.03175894200103,2,2,2,1,331000.86905466,56,B
63,3,8/9/92,23,F,134,The dessert served Fred,Non-sensible,edin_semantics,emo_sem_emo_sem,1.29001971782418,1,1,1,1,331002.903700078,145,B
63,3,8/9/92,23,F,135,Josh ironed the shirt,Sensible,edin_semantics,emo_sem_emo_sem,1.10176338074962,2,1,1,1,331004.750229956,55,B
63,3,8/9/92,23,F,136,Kate served the dish,Sensible,edin_semantics,emo_sem_emo_sem,0.984105775889475,2,2,2,1,331006.479075288,70,B
63,3,8/9/92,23,F,137,The trophy polished Anna,Non-sensible,edin_semantics,emo_sem_emo_sem,2.39605059416499,1,2,2,1,331009.619325988,104,B
63,3,8/9/92,23,F,138,The problem solved Phil,Non-sensible,edin_semantics,emo_sem_emo_sem,1.09073768078815,2,1,1,1,331011.454031253,109,B
63,3,8/9/92,23,F,139,Luke climbed the hill,Sensible,edin_semantics,emo_sem_emo_sem,1.19661653606454,2,2,2,1,331013.394599979,68,B
63,3,8/9/92,23,F,140,Mary visited the museum,Sensible,edin_semantics,emo_sem_emo_sem,1.12599856057204,2,2,2,1,331015.264641493,16,B
63,3,8/9/92,23,F,141,Luke swallowed the pill,Sensible,edin_semantics,emo_sem_emo_sem,2.3720755178947,1,2,2,1,331018.381308716,22,B
63,3,8/9/92,23,F,142,Beth wiped the table,Sensible,edin_semantics,emo_sem_emo_sem,1.06623117212439,2,2,2,1,331020.192543076,40,B
63,3,8/9/92,23,F,143,Matt offered the money,Sensible,edin_semantics,emo_sem_emo_sem,1.50173701759195,1,1,2,0,331022.43891702,9,B
63,3,8/9/92,23,F,144,The internet searched Max,Non-sensible,edin_semantics,emo_sem_emo_sem,1.14957530301763,1,1,1,1,331024.332423345,85,B
63,3,8/9/92,23,F,145,The shoes counted Lucy,Non-sensible,edin_semantics,emo_sem_emo_sem,0.796208324085455,2,1,1,1,331025.873122347,123,B
63,3,8/9/92,23,F,146,The debt paid Zoe,Non-sensible,edin_semantics,emo_sem_emo_sem,0.996760090172756,2,2,2,1,331027.613773049,134,B
63,3,8/9/92,23,F,147,The plants watered Luke,Non-sensible,edin_semantics,emo_sem_emo_sem,0.902571145270485,2,1,1,1,331029.260337115,129,B
63,3,8/9/92,23,F,148,Ella watched the movie,Sensible,edin_semantics,emo_sem_emo_sem,0.937934013840277,2,1,1,1,331030.942189322,33,B
63,3,8/9/92,23,F,149,Max kissed the mirror,Sensible,edin_semantics,emo_sem_emo_sem,1.43229736608919,1,1,1,1,331033.118455235,23,B
63,3,8/9/92,23,F,150,Kate built the house,Sensible,edin_semantics,emo_sem_emo_sem,1.07840729347663,2,2,2,1,331034.94094493,46,B
63,3,8/9/92,23,F,24,Rob measured the curtains,Sensible,edin_semantics,emo_sem_emo_sem,1.77724673727062,1,1,1,1,331042.291658274,126,A
63,3,8/9/92,23,F,25,Max kicked the door,Sensible,edin_semantics,emo_sem_emo_sem,1.02891415875638,2,1,1,1,331044.067553179,114,A
63,3,8/9/92,23,F,26,Jack cleaned the bath,Sensible,edin_semantics,emo_sem_emo_sem,0.726127554080449,2,1,1,1,331045.537688407,80,A
63,3,8/9/92,23,F,27,The room searched Jen,Non-sensible,edin_semantics,emo_sem_emo_sem,1.03177882661112,2,1,1,1,331047.313634626,10,A
63,3,8/9/92,23,F,28,The gun carried Ryan,Non-sensible,edin_semantics,emo_sem_emo_sem,1.12638149986742,2,2,2,1,331049.183632522,75,A
63,3,8/9/92,23,F,29,Dan brushed the hair,Sensible,edin_semantics,emo_sem_emo_sem,1.70317813922884,2,2,2,1,331051.629943733,147,A
63,3,8/9/92,23,F,30,The milk sniffed Phil,Non-sensible,edin_semantics,emo_sem_emo_sem,1.06716254202183,2,1,1,1,331053.441120684,18,A
63,3,8/9/92,23,F,31,The bushes trimmed Jon,Non-sensible,edin_semantics,emo_sem_emo_sem,1.24401505070273,2,1,1,1,331055.428797353,32,A
63,3,8/9/92,23,F,32,Jack posted the gift,Sensible,edin_semantics,emo_sem_emo_sem,1.16183513210854,1,2,2,1,331057.334054846,111,A
63,3,8/9/92,23,F,33,Tom visited the hospital,Sensible,edin_semantics,emo_sem_emo_sem,1.44342697918182,2,2,2,1,331059.521623881,91,A
63,3,8/9/92,23,F,34,Josh scrubbed the pot,Sensible,edin_semantics,emo_sem_emo_sem,1.59651191730518,1,2,2,1,331061.862073555,131,A
63,3,8/9/92,23,F,35,The eggs whisked Dan,Non-sensible,edin_semantics,emo_sem_emo_sem,2.29053062421735,1,1,1,1,331064.896426798,62,A
63,3,8/9/92,23,F,36,The photo took Beth,Non-sensible,edin_semantics,emo_sem_emo_sem,1.56150921684457,1,2,2,1,331067.201610141,53,A
63,3,8/9/92,23,F,37,Amy lifted the crate,Sensible,edin_semantics,emo_sem_emo_sem,3.01996223203605,2,1,1,1,331070.965177223,144,A
63,3,8/9/92,23,F,38,The trolley pushed Matt,Non-sensible,edin_semantics,emo_sem_emo_sem,1.23239666089648,2,1,1,1,331072.941032486,26,A
63,3,8/9/92,23,F,39,Ian mailed the invite,Sensible,edin_semantics,emo_sem_emo_sem,1.07947689341381,1,2,2,1,331074.763997167,89,A
63,3,8/9/92,23,F,40,The ball squeezed Josh,Non-sensible,edin_semantics,emo_sem_emo_sem,1.30253099114634,2,2,2,1,331076.810476179,1,A
63,3,8/9/92,23,F,41,The fur stroked Rob,Non-sensible,edin_semantics,emo_sem_emo_sem,1.20797033212148,2,2,2,1,331078.762811788,41,A
63,3,8/9/92,23,F,42,Mike ate the steak,Sensible,edin_semantics,emo_sem_emo_sem,2.11418966331985,1,1,1,1,331081.620738438,142,A
63,3,8/9/92,23,F,43,The dish served Kate,Non-sensible,edin_semantics,emo_sem_emo_sem,1.50241790537257,2,1,1,1,331083.867084158,70,A
63,3,8/9/92,23,F,44,The hill climbed Luke,Non-sensible,edin_semantics,emo_sem_emo_sem,1.14979435456917,2,1,1,1,331085.760622876,68,A
63,3,8/9/92,23,F,45,Leo passed the salt,Sensible,edin_semantics,emo_sem_emo_sem,2.17294133268297,1,1,1,1,331088.677393563,118,A
63,3,8/9/92,23,F,46,Fred stored the rice,Sensible,edin_semantics,emo_sem_emo_sem,2.29050240089418,1,2,2,1,331091.71175322,127,A
63,3,8/9/92,23,F,47,Ryan knitted the socks,Sensible,edin_semantics,emo_sem_emo_sem,4.63053866790142,2,2,2,1,331097.086565118,141,A
63,3,8/9/92,23,F,48,Lucy wiped the desk,Sensible,edin_semantics,emo_sem_emo_sem,4.9248348614783,1,2,2,1,331102.755407654,115,A
63,3,8/9/92,23,F,49,Andy pulled the rope,Sensible,edin_semantics,emo_sem_emo_sem,1.44298021669965,2,1,1,1,331104.942994328,148,A
63,3,8/9/92,23,F,50,The shirt ironed Josh,Non-sensible,edin_semantics,emo_sem_emo_sem,0.984281530312728,2,2,2,1,331106.671875581,55,A
63,3,8/9/92,23,F,51,Rose built the shed,Sensible,edin_semantics,emo_sem_emo_sem,3.91293904918712,1,2,2,1,331111.329270991,121,A
63,3,8/9/92,23,F,52,The floor cleaned Tim,Non-sensible,edin_semantics,emo_sem_emo_sem,2.18382751953322,1,2,2,1,331114.257771678,5,A
63,3,8/9/92,23,F,53,Fred lent the car,Sensible,edin_semantics,emo_sem_emo_sem,1.03158094256651,1,1,1,1,331116.033673959,94,A
63,3,8/9/92,23,F,54,Erin described the church,Sensible,edin_semantics,emo_sem_emo_sem,2.27827624737984,1,2,2,1,331119.056286939,117,A
63,3,8/9/92,23,F,55,The juice drank Matt,Non-sensible,edin_semantics,emo_sem_emo_sem,0.949521614587866,2,1,1,1,331120.749919499,60,A
63,3,8/9/92,23,F,56,Tom offered the sweets,Sensible,edin_semantics,emo_sem_emo_sem,2.71341166162165,2,1,1,1,331124.207632614,84,A
63,3,8/9/92,23,F,57,The potatoes mashed Will,Non-sensible,edin_semantics,emo_sem_emo_sem,1.03127882466652,2,1,1,1,331125.983569853,28,A
63,3,8/9/92,23,F,58,Ben climbed the stairs,Sensible,edin_semantics,emo_sem_emo_sem,1.02005524077686,2,2,2,1,331127.747739889,143,A
63,3,8/9/92,23,F,59,Lucy counted the shoes,Sensible,edin_semantics,emo_sem_emo_sem,2.33676877524704,2,2,2,1,331130.829162267,123,A
63,3,8/9/92,23,F,60,Zoe paid the debt,Sensible,edin_semantics,emo_sem_emo_sem,1.73740405670833,2,1,1,1,331133.310738848,134,A
63,3,8/9/92,23,F,61,The bike kicked Matt,Non-sensible,edin_semantics,emo_sem_emo_sem,5.97123144794023,1,2,2,1,331140.026361551,39,A
63,3,8/9/92,23,F,62,The herbs chopped Phil,Non-sensible,edin_semantics,emo_sem_emo_sem,1.99532743555028,1,2,2,1,331142.766682553,27,A
63,3,8/9/92,23,F,63,Ian dented the bowl,Sensible,edin_semantics,emo_sem_emo_sem,0.972074619901832,2,1,1,1,331144.483774152,146,A
63,3,8/9/92,23,F,64,Emma pulled the rope,Sensible,edin_semantics,emo_sem_emo_sem,0.972384114342276,2,1,1,1,331146.200888201,120,A
63,3,8/9/92,23,F,65,The sheets counted Bill,Non-sensible,edin_semantics,emo_sem_emo_sem,0.960966495040338,2,1,1,1,331147.906262949,48,A
63,3,8/9/92,23,F,66,Josh taught the rules,Sensible,edin_semantics,emo_sem_emo_sem,2.00780022243271,1,1,1,1,331150.658354362,90,A
63,3,8/9/92,23,F,67,Erin punched the monitor,Sensible,edin_semantics,emo_sem_emo_sem,1.9726259369636,1,2,2,1,331153.375190989,125,A
63,3,8/9/92,23,F,68,Liz weighed the sugar,Sensible,edin_semantics,emo_sem_emo_sem,2.21957076166291,2,2,2,1,331156.338952555,139,A
63,3,8/9/92,23,F,69,The teeth brushed Carl,Non-sensible,edin_semantics,emo_sem_emo_sem,1.63095752772642,2,1,1,1,331158.714707369,72,A
63,3,8/9/92,23,F,70,The jumper wore Joe,Non-sensible,edin_semantics,emo_sem_emo_sem,2.25462766375858,1,2,2,1,331161.713796204,25,A
63,3,8/9/92,23,F,71,The laptop fixed Jen,Non-sensible,edin_semantics,emo_sem_emo_sem,3.11305880581494,1,2,2,1,331165.571433565,37,A
63,3,8/9/92,23,F,72,Alex dusted the house,Sensible,edin_semantics,emo_sem_emo_sem,1.30182765296195,1,1,1,1,331167.617886919,122,A
63,3,8/9/92,23,F,73,The book read Sean,Non-sensible,edin_semantics,emo_sem_emo_sem,1.20756045245798,2,1,1,1,331169.570225735,4,A
63,3,8/9/92,23,F,74,The movie watched Ella,Non-sensible,edin_semantics,emo_sem_emo_sem,2.58366966136964,1,2,2,1,331172.89860256,33,A
63,3,8/9/92,23,F,75,The lorry dented Lily,Non-sensible,edin_semantics,emo_sem_emo_sem,2.38361853861716,1,2,2,1,331176.027026724,71,A
63,3,8/9/92,23,F,76,Ian labeled the box,Sensible,edin_semantics,emo_sem_emo_sem,1.70234683394665,2,1,1,1,331178.473379628,136,A
63,3,8/9/92,23,F,77,Jay sold the bed,Sensible,edin_semantics,emo_sem_emo_sem,2.3017102695303,1,2,2,1,331181.519459985,113,A
63,3,8/9/92,23,F,78,The room tidied Sam,Non-sensible,edin_semantics,emo_sem_emo_sem,2.4903190775658,2,1,1,1,331184.753760759,2,A
63,3,8/9/92,23,F,79,The paper cut Jon,Non-sensible,edin_semantics,emo_sem_emo_sem,1.61970283399569,1,1,1,1,331187.117745803,20,A
63,3,8/9/92,23,F,80,Erin tidied the garage,Sensible,edin_semantics,emo_sem_emo_sem,3.84257123502903,1,2,2,1,331191.704568459,77,A
63,3,8/9/92,23,F,81,Tom grated the carrots,Sensible,edin_semantics,emo_sem_emo_sem,5.06566413980909,1,1,1,1,331197.51456869,140,A
63,3,8/9/92,23,F,82,Liam sliced the onion,Sensible,edin_semantics,emo_sem_emo_sem,1.56046976451762,1,1,1,1,331199.819737279,78,A
63,3,8/9/92,23,F,83,Tim sniffed the perfume,Sensible,edin_semantics,emo_sem_emo_sem,1.96107169106836,1,2,2,1,331202.52479676,93,A
63,3,8/9/92,23,F,84,The picture painted Ryan,Non-sensible,edin_semantics,emo_sem_emo_sem,2.46658935188316,1,2,2,1,331205.735554146,35,A
63,3,8/9/92,23,F,85,The kettle got Lily,Non-sensible,edin_semantics,emo_sem_emo_sem,1.77183138614055,2,2,2,1,331208.252430734,13,A
63,3,8/9/92,23,F,86,Jay painted the portrait,Sensible,edin_semantics,emo_sem_emo_sem,1.51333135337336,1,1,1,1,331210.510586635,110,A
63,3,8/9/92,23,F,87,The box lifted Kate,Non-sensible,edin_semantics,emo_sem_emo_sem,1.87821024324512,1,2,2,1,331213.133285952,69,A
63,3,8/9/92,23,F,88,Joe iced the donut,Sensible,edin_semantics,emo_sem_emo_sem,3.19585931696929,1,2,2,1,331217.073263913,119,A
63,3,8/9/92,23,F,89,The plans cancelled Ian,Non-sensible,edin_semantics,emo_sem_emo_sem,1.70252451265696,1,2,2,1,331219.519581217,7,A
63,3,8/9/92,23,F,90,The toffee chewed Ben,Non-sensible,edin_semantics,emo_sem_emo_sem,2.45534780761227,2,2,2,1,331222.718592887,31,A
63,3,8/9/92,23,F,91,The room entered Ryan,Non-sensible,edin_semantics,emo_sem_emo_sem,0.914282543759327,1,1,1,1,331224.376901386,58,A
63,3,8/9/92,23,F,92,The papers filed Lara,Non-sensible,edin_semantics,emo_sem_emo_sem,1.20831478503533,2,1,1,1,331226.329229939,24,A
63,3,8/9/92,23,F,93,The story wrote Ewan,Non-sensible,edin_semantics,emo_sem_emo_sem,0.92589355702512,1,1,1,1,331227.999262345,74,A
63,3,8/9/92,23,F,94,The house built Kate,Non-sensible,edin_semantics,emo_sem_emo_sem,0.914425905444659,1,1,1,1,331229.657607406,46,A
63,3,8/9/92,23,F,95,The garden watered Jeff,Non-sensible,edin_semantics,emo_sem_emo_sem,1.94950557861011,2,1,1,1,331232.350902569,54,A
63,3,8/9/92,23,F,96,Phil solved the problem,Sensible,edin_semantics,emo_sem_emo_sem,1.09006962185958,2,2,2,1,331234.185632209,109,A
63,3,8/9/92,23,F,97,Kate wore the dress,Sensible,edin_semantics,emo_sem_emo_sem,1.01988654222805,1,1,1,1,331235.949791661,100,A
63,3,8/9/92,23,F,98,The tree hugged Amy,Non-sensible,edin_semantics,emo_sem_emo_sem,0.902204883401282,2,2,2,1,331237.596350916,11,A
63,3,8/9/92,23,F,99,Adam watched the opera,Sensible,edin_semantics,emo_sem_emo_sem,1.07906412729062,1,1,1,1,331239.419337727,108,A
63,3,8/9/92,23,F,100,The jar labeled Liz,Non-sensible,edin_semantics,emo_sem_emo_sem,1.51376143848756,2,2,2,1,331241.677466366,61,A
63,3,8/9/92,23,F,101,Eve typed the message,Sensible,edin_semantics,emo_sem_emo_sem,1.16087618039455,1,1,1,1,331243.582725783,124,A
63,3,8/9/92,23,F,102,The towels passed Phil,Non-sensible,edin_semantics,emo_sem_emo_sem,2.32546565285884,2,2,2,1,331246.652418483,43,A
63,3,8/9/92,23,F,103,The pill swallowed Luke,Non-sensible,edin_semantics,emo_sem_emo_sem,1.49061959184473,1,1,1,1,331248.887022336,22,A
63,3,8/9/92,23,F,104,Sam sucked the candy,Sensible,edin_semantics,emo_sem_emo_sem,1.59648048673989,2,2,2,1,331251.227472331,87,A
63,3,8/9/92,23,F,105,Fred chopped the carrots,Sensible,edin_semantics,emo_sem_emo_sem,1.07881428662222,1,1,1,1,331253.050395319,102,A
63,3,8/9/92,23,F,106,The money offered Matt,Non-sensible,edin_semantics,emo_sem_emo_sem,2.10160815244308,2,2,2,1,331255.896643284,9,A
63,3,8/9/92,23,F,107,The coins polished Jon,Non-sensible,edin_semantics,emo_sem_emo_sem,1.30221347865881,1,2,2,1,331257.94303506,29,A
63,3,8/9/92,23,F,108,The pen described John,Non-sensible,edin_semantics,emo_sem_emo_sem,1.18454047926934,2,1,1,1,331259.871860636,42,A
63,3,8/9/92,23,F,109,Eve ironed the trousers,Sensible,edin_semantics,emo_sem_emo_sem,1.3259326206753,1,1,1,1,331261.941840058,130,A
63,3,8/9/92,23,F,110,Phil cancelled the party,Sensible,edin_semantics,emo_sem_emo_sem,2.16084378771484,1,1,1,1,331264.846826543,82,A
63,3,8/9/92,23,F,111,The flour weighed Jen,Non-sensible,edin_semantics,emo_sem_emo_sem,1.07872191938804,1,1,1,1,331266.669774226,64,A
63,3,8/9/92,23,F,112,Fred served the dessert,Sensible,edin_semantics,emo_sem_emo_sem,1.47808650962543,1,2,1,0,331268.892643269,145,A
63,3,8/9/92,23,F,113,Joe entered the office,Sensible,edin_semantics,emo_sem_emo_sem,3.56050183647312,2,2,2,1,331273.197213716,133,A
63,3,8/9/92,23,F,114,Liam mixed the nuts,Sensible,edin_semantics,emo_sem_emo_sem,1.34917100385064,1,2,2,1,331275.290679438,83,A
63,3,8/9/92,23,F,115,Anna polished the trophy,Sensible,edin_semantics,emo_sem_emo_sem,2.61917332583107,2,1,1,1,331278.654337028,104,A
63,3,8/9/92,23,F,116,Adam chewed the fat,Sensible,edin_semantics,emo_sem_emo_sem,1.52554499887628,1,1,1,1,331280.924239606,106,A
63,3,8/9/92,23,F,117,The cheese grated Andy,Non-sensible,edin_semantics,emo_sem_emo_sem,5.04213454318233,2,2,2,1,331286.710702543,65,A
63,3,8/9/92,23,F,118,The puzzle solved Joe,Non-sensible,edin_semantics,emo_sem_emo_sem,3.63075066357851,1,1,1,1,331291.085840933,34,A
63,3,8/9/92,23,F,119,The handle pulled Tim,Non-sensible,edin_semantics,emo_sem_emo_sem,1.80824589449912,1,2,2,1,331293.637992513,73,A
63,3,8/9/92,23,F,120,John carried the kettle,Sensible,edin_semantics,emo_sem_emo_sem,4.93653567624278,2,2,2,1,331299.318595838,105,A
63,3,8/9/92,23,F,121,The lever pulled Hugh,Non-sensible,edin_semantics,emo_sem_emo_sem,1.40758238965645,2,2,2,1,331301.470882184,45,A
63,3,8/9/92,23,F,122,Josh crushed the ice,Sensible,edin_semantics,emo_sem_emo_sem,2.91346759512089,1,2,2,1,331305.128577147,81,A
63,3,8/9/92,23,F,123,The garlic crushed Erin,Non-sensible,edin_semantics,emo_sem_emo_sem,1.43163924943656,2,1,1,1,331307.30437545,6,A
63,3,8/9/92,23,F,124,Leo carried the wallet,Sensible,edin_semantics,emo_sem_emo_sem,1.21968589996686,1,1,1,1,331309.26848628,150,A
63,3,8/9/92,23,F,125,Owen swallowed the gum,Sensible,edin_semantics,emo_sem_emo_sem,0.972994443844073,1,2,2,1,331310.985593594,97,A
63,3,8/9/92,23,F,126,Jay squeezed the lemon,Sensible,edin_semantics,emo_sem_emo_sem,1.44333846052177,1,1,1,1,331313.173160063,76,A
63,3,8/9/92,23,F,127,Kate hugged the pillow,Sensible,edin_semantics,emo_sem_emo_sem,1.60808572708629,2,1,1,1,331315.525361227,86,A
63,3,8/9/92,23,F,128,The card posted Erin,Non-sensible,edin_semantics,emo_sem_emo_sem,0.937584108731244,1,1,1,1,331317.207207019,36,A
63,3,8/9/92,23,F,129,Bill trimmed the hair,Sensible,edin_semantics,emo_sem_emo_sem,1.67851223284379,2,2,2,1,331319.630008839,107,A
63,3,8/9/92,23,F,130,Ryan stroked the blanket,Sensible,edin_semantics,emo_sem_emo_sem,1.04328945459565,2,1,1,1,331321.41766357,116,A
63,3,8/9/92,23,F,131,Beth washed the pan,Sensible,edin_semantics,emo_sem_emo_sem,1.06695824360941,1,1,1,1,331323.228909476,132,A
63,3,8/9/92,23,F,132,The wine stored Leo,Non-sensible,edin_semantics,emo_sem_emo_sem,2.99568311357871,1,1,1,1,331326.968902703,52,A
63,3,8/9/92,23,F,133,The bowl scrubbed Liz,Non-sensible,edin_semantics,emo_sem_emo_sem,9.24106090207351,2,1,1,1,331336.954071664,56,A
63,3,8/9/92,23,F,134,Tom whisked the cream,Sensible,edin_semantics,emo_sem_emo_sem,3.38305888284231,1,2,2,1,331341.082302113,137,A
63,3,8/9/92,23,F,135,Luke read the poster,Sensible,edin_semantics,emo_sem_emo_sem,2.28933466068702,2,2,2,1,331344.116575817,79,A
63,3,8/9/92,23,F,136,Hugh dialed the hotline,Sensible,edin_semantics,emo_sem_emo_sem,1.80741555133136,1,1,1,1,331346.668763959,138,A
63,3,8/9/92,23,F,137,The number dialed Tom,Non-sensible,edin_semantics,emo_sem_emo_sem,8.28764478885569,2,2,2,1,331355.701260236,63,A
63,3,8/9/92,23,F,138,The parcel mailed Rob,Non-sensible,edin_semantics,emo_sem_emo_sem,1.6782389797736,1,1,1,1,331358.124040246,14,A
63,3,8/9/92,23,F,139,Alex wrote the report,Sensible,edin_semantics,emo_sem_emo_sem,1.76042467128718,2,2,2,1,331360.62913584,149,A
63,3,8/9/92,23,F,140,The table wiped Beth,Non-sensible,edin_semantics,emo_sem_emo_sem,2.00785314117093,2,1,1,1,331363.381250665,40,A
63,3,8/9/92,23,F,141,Luke fixed the radio,Sensible,edin_semantics,emo_sem_emo_sem,2.87795495038154,2,1,1,1,331367.003692445,112,A
63,3,8/9/92,23,F,142,The bucket lent Max,Non-sensible,edin_semantics,emo_sem_emo_sem,2.93709180405131,2,2,2,1,331370.684898082,19,A
63,3,8/9/92,23,F,143,Hugh kissed the rose,Sensible,edin_semantics,emo_sem_emo_sem,1.14915836747969,2,1,1,1,331372.578422688,98,A
63,3,8/9/92,23,F,144,Jane licked the plate,Sensible,edin_semantics,emo_sem_emo_sem,1.37256461539073,1,1,1,1,331374.695413517,96,A
63,3,8/9/92,23,F,145,Ella mashed the turnip,Sensible,edin_semantics,emo_sem_emo_sem,3.11336316884262,1,2,2,1,331378.553059537,103,A
63,3,8/9/92,23,F,146,The folder carried Dan,Non-sensible,edin_semantics,emo_sem_emo_sem,1.36106521257898,1,1,1,1,331380.658302726,30,A
63,3,8/9/92,23,F,147,The museum visited Mary,Non-sensible,edin_semantics,emo_sem_emo_sem,1.58396760985488,1,1,1,1,331382.987031701,16,A
63,3,8/9/92,23,F,148,The scarf knitted Tom,Non-sensible,edin_semantics,emo_sem_emo_sem,1.78455850377213,1,1,1,1,331385.515641176,66,A
63,3,8/9/92,23,F,149,Lucy cut the ribbon,Sensible,edin_semantics,emo_sem_emo_sem,5.53606332029449,2,2,2,1,331391.796047964,95,A
63,3,8/9/92,23,F,150,The shelf dusted Jake,Non-sensible,edin_semantics,emo_sem_emo_sem,1.90110417356482,1,2,2,1,331394.442310875,47,A
63,3,8/9/92,23,F,151,The lesson taught Eve,Non-sensible,edin_semantics,emo_sem_emo_sem,1.27787630999228,1,2,2,1,331396.465202239,15,A
63,3,8/9/92,23,F,152,The bill paid Mike,Non-sensible,edin_semantics,emo_sem_emo_sem,8.48756826517638,2,2,2,1,331405.697679722,59,A
63,3,8/9/92,23,F,153,The spoon licked Will,Non-sensible,edin_semantics,emo_sem_emo_sem,3.4650964019238,1,2,2,1,331409.908163213,21,A
63,3,8/9/92,23,F,154,Ben got the radio,Sensible,edin_semantics,emo_sem_emo_sem,1.28956493735313,1,1,1,1,331411.942796444,88,A
63,3,8/9/92,23,F,155,Tim took the ticket,Sensible,edin_semantics,emo_sem_emo_sem,1.66658595221816,2,1,1,1,331414.353812779,128,A
63,3,8/9/92,23,F,156,Ian pushed the button,Sensible,edin_semantics,emo_sem_emo_sem,2.79514642129652,1,2,2,1,331417.893911715,101,A
63,3,8/9/92,23,F,157,The sofa sold Carl,Non-sensible,edin_semantics,emo_sem_emo_sem,2.3246009927243,2,1,1,1,331420.963575549,38,A
63,3,8/9/92,23,F,158,Luke watered the plants,Sensible,edin_semantics,emo_sem_emo_sem,7.51176175149158,2,2,2,1,331429.219867748,129,A
63,3,8/9/92,23,F,159,Sara jumped the hedge,Sensible,edin_semantics,emo_sem_emo_sem,1.54884463956114,2,1,1,1,331431.513271058,92,A
63,3,8/9/92,23,F,160,The thread measured Amy,Non-sensible,edin_semantics,emo_sem_emo_sem,1.63156593294116,2,2,2,1,331433.889031003,51,A
63,3,8/9/92,23,F,161,Jack drank the beer,Sensible,edin_semantics,emo_sem_emo_sem,4.0423372379737,1,2,2,1,331438.675748271,135,A
63,3,8/9/92,23,F,162,The tomato sliced Liz,Non-sensible,edin_semantics,emo_sem_emo_sem,6.90014907048317,2,2,2,1,331446.320480707,3,A
63,3,8/9/92,23,F,163,The cake iced Mary,Non-sensible,edin_semantics,emo_sem_emo_sem,1.50165234762244,2,1,1,1,331448.566841822,44,A
63,3,8/9/92,23,F,164,The lolly sucked Leah,Non-sensible,edin_semantics,emo_sem_emo_sem,1.18437787442235,1,1,1,1,331450.495690811,12,A
63,3,8/9/92,23,F,165,Ian filed the report,Sensible,edin_semantics,emo_sem_emo_sem,7.28820733114844,1,2,2,1,331458.528488885,99,A
63,3,8/9/92,23,F,166,The dishes washed Mark,Non-sensible,edin_semantics,emo_sem_emo_sem,1.65450059459545,2,2,2,1,331460.927786444,57,A
63,3,8/9/92,23,F,167,The ham ate Tim,Non-sensible,edin_semantics,emo_sem_emo_sem,1.73723535815952,1,2,2,1,331463.409339613,67,A
63,3,8/9/92,23,F,168,The fruits mixed Jack,Non-sensible,edin_semantics,emo_sem_emo_sem,1.19575123448158,1,1,1,1,331465.3499449,8,A
63,3,8/9/92,23,F,169,The mirror kissed Max,Non-sensible,edin_semantics,emo_sem_emo_sem,1.34909467259422,1,2,2,1,331467.443421527,23,A
63,3,8/9/92,23,F,170,The letter typed Phil,Non-sensible,edin_semantics,emo_sem_emo_sem,2.19603186415043,2,2,2,1,331470.38367691,49,A
63,3,8/9/92,23,F,171,The wall punched Jane,Non-sensible,edin_semantics,emo_sem_emo_sem,1.05497679911787,1,1,1,1,331472.18313252,50,A
63,3,8/9/92,23,F,172,The fence jumped Jon,Non-sensible,edin_semantics,emo_sem_emo_sem,1.13777506520273,1,2,2,1,331474.064903072,17,A
63,3,8/9/92,23,F,173,Max searched the internet,Sensible,edin_semantics,emo_sem_emo_sem,1.78459025500342,1,2,2,1,331476.593526017,85,A
