subject_column,AssignedList_column,subject_dob_column,subject_age_column,subject_gender_column,trialnum_column,Stim_column,Type_column,Experiment_column,OrderGroup_column,ReactionTime_column,StimSide_column,StimPosition_column,Response_column,Valid_column,TrialEndSecs_column,PairID_column,List_column
64,4,17/7/93,22,F,1,Tom dialed the number,Sensible,edin_semantics,sem_emo_sem_emo,1.06050985440379,2,2,2,1,335226.809240446,63,B
64,4,17/7/93,22,F,2,The house dusted Alex,Non-sensible,edin_semantics,sem_emo_sem_emo,1.31164103263291,1,1,1,1,335228.86742829,122,B
64,4,17/7/93,22,F,3,Rob mailed the parcel,Sensible,edin_semantics,sem_emo_sem_emo,0.983268376905471,1,1,1,1,335230.596282282,14,B
64,4,17/7/93,22,F,4,The ice crushed Josh,Non-sensible,edin_semantics,sem_emo_sem_emo,1.15978894080035,2,2,2,1,335232.501610654,81,B
64,4,17/7/93,22,F,5,Jon polished the coins,Sensible,edin_semantics,sem_emo_sem_emo,0.985471400199458,2,2,2,1,335234.230500246,29,B
64,4,17/7/93,22,F,6,The sweets offered Tom,Non-sensible,edin_semantics,sem_emo_sem_emo,0.844439106236678,2,1,1,1,335235.818234708,84,B
64,4,17/7/93,22,F,7,The rope pulled Emma,Non-sensible,edin_semantics,sem_emo_sem_emo,0.974010483652819,1,1,1,1,335237.535380829,120,B
64,4,17/7/93,22,F,8,Ben chewed the toffee,Sensible,edin_semantics,sem_emo_sem_emo,0.844600107520819,2,2,2,1,335239.123085143,31,B
64,4,17/7/93,22,F,9,The rope pulled Andy,Non-sensible,edin_semantics,sem_emo_sem_emo,0.75019403535407,2,1,1,1,335240.616747402,148,B
64,4,17/7/93,22,F,10,The desk wiped Lucy,Non-sensible,edin_semantics,sem_emo_sem_emo,0.726751995214727,2,2,2,1,335242.086921117,115,B
64,4,17/7/93,22,F,11,Luke climbed the hill,Sensible,edin_semantics,sem_emo_sem_emo,0.668043622979894,2,1,1,1,335243.498216799,68,B
64,4,17/7/93,22,F,12,The candy sucked Sam,Non-sensible,edin_semantics,sem_emo_sem_emo,0.703284618153702,2,2,2,1,335244.944850654,87,B
64,4,17/7/93,22,F,13,Dan whisked the eggs,Sensible,edin_semantics,sem_emo_sem_emo,0.703157613170333,2,1,1,1,335246.391448267,62,B
64,4,17/7/93,22,F,14,The garage tidied Erin,Non-sensible,edin_semantics,sem_emo_sem_emo,0.738494824210647,2,2,2,1,335247.873341078,77,B
64,4,17/7/93,22,F,15,John described the pen,Sensible,edin_semantics,sem_emo_sem_emo,0.880106017109938,1,1,1,1,335249.496391583,42,B
64,4,17/7/93,22,F,16,Ian cancelled the plans,Sensible,edin_semantics,sem_emo_sem_emo,0.762100752152037,1,2,2,1,335251.001811104,7,B
64,4,17/7/93,22,F,17,Lara filed the papers,Sensible,edin_semantics,sem_emo_sem_emo,0.915083380707074,1,1,1,1,335252.660113509,24,B
64,4,17/7/93,22,F,18,The perfume sniffed Tim,Non-sensible,edin_semantics,sem_emo_sem_emo,0.750314305303618,2,2,2,1,335254.153796615,93,B
64,4,17/7/93,22,F,19,The rose kissed Hugh,Non-sensible,edin_semantics,sem_emo_sem_emo,0.85675474058371,1,1,1,1,335255.753323618,98,B
64,4,17/7/93,22,F,20,The report filed Ian,Non-sensible,edin_semantics,sem_emo_sem_emo,0.867654076952022,2,2,2,1,335257.364547586,99,B
64,4,17/7/93,22,F,21,The hedge jumped Sara,Non-sensible,edin_semantics,sem_emo_sem_emo,0.809102536586579,1,1,1,1,335258.917017641,92,B
64,4,17/7/93,22,F,22,Liz labeled the jar,Sensible,edin_semantics,sem_emo_sem_emo,0.715247781539802,2,2,2,1,335260.375398815,61,B
64,4,17/7/93,22,F,23,The office entered Joe,Non-sensible,edin_semantics,sem_emo_sem_emo,0.808940573246218,1,2,2,1,335261.927857644,133,B
64,4,17/7/93,22,F,24,Josh squeezed the ball,Sensible,edin_semantics,sem_emo_sem_emo,0.85617391730193,2,2,2,1,335263.527386892,1,B
64,4,17/7/93,22,F,25,Jon cut the paper,Sensible,edin_semantics,sem_emo_sem_emo,0.644389587105252,2,1,1,1,335264.915186652,20,B
64,4,17/7/93,22,F,26,The radio got Ben,Non-sensible,edin_semantics,sem_emo_sem_emo,0.726733072777279,2,1,1,1,335266.385319956,88,B
64,4,17/7/93,22,F,27,The nuts mixed Liam,Non-sensible,edin_semantics,sem_emo_sem_emo,0.715036427311134,1,2,2,1,335267.843670983,83,B
64,4,17/7/93,22,F,28,Beth wiped the table,Sensible,edin_semantics,sem_emo_sem_emo,0.797598323028069,1,1,1,1,335269.384396605,40,B
64,4,17/7/93,22,F,29,The bowl dented Ian,Non-sensible,edin_semantics,sem_emo_sem_emo,0.809020432352554,2,1,1,1,335270.936866659,146,B
64,4,17/7/93,22,F,30,Rob stroked the fur,Sensible,edin_semantics,sem_emo_sem_emo,0.679787734872662,1,2,2,1,335272.359938524,41,B
64,4,17/7/93,22,F,31,The salt passed Leo,Non-sensible,edin_semantics,sem_emo_sem_emo,0.597575423656963,2,1,1,1,335273.700734256,118,B
64,4,17/7/93,22,F,32,Dan carried the folder,Sensible,edin_semantics,sem_emo_sem_emo,0.644787920929957,2,1,1,1,335275.088547486,30,B
64,4,17/7/93,22,F,33,The pillow hugged Kate,Non-sensible,edin_semantics,sem_emo_sem_emo,0.703286863223184,2,1,1,1,335276.535150552,86,B
64,4,17/7/93,22,F,34,Matt offered the money,Sensible,edin_semantics,sem_emo_sem_emo,0.679903835407458,1,2,2,1,335277.958228511,9,B
64,4,17/7/93,22,F,35,Ryan painted the picture,Sensible,edin_semantics,sem_emo_sem_emo,0.726772200549021,1,2,2,1,335279.428373682,35,B
64,4,17/7/93,22,F,36,Ryan entered the room,Sensible,edin_semantics,sem_emo_sem_emo,0.585653312329669,2,1,1,1,335280.757378476,58,B
64,4,17/7/93,22,F,37,The hair brushed Dan,Non-sensible,edin_semantics,sem_emo_sem_emo,0.821049022604711,2,2,2,1,335282.321598415,147,B
64,4,17/7/93,22,F,38,Ewan wrote the story,Sensible,edin_semantics,sem_emo_sem_emo,0.620520669093821,2,1,1,1,335283.685907707,74,B
64,4,17/7/93,22,F,39,The trophy polished Anna,Non-sensible,edin_semantics,sem_emo_sem_emo,0.821036193810869,1,1,1,1,335285.250100385,104,B
64,4,17/7/93,22,F,40,The gift posted Jack,Non-sensible,edin_semantics,sem_emo_sem_emo,0.821257490373682,2,2,2,1,335286.814347586,111,B
64,4,17/7/93,22,F,41,Tom knitted the scarf,Sensible,edin_semantics,sem_emo_sem_emo,0.809421652695164,1,1,1,1,335288.366798397,66,B
64,4,17/7/93,22,F,42,The pot scrubbed Josh,Non-sensible,edin_semantics,sem_emo_sem_emo,0.76164757530205,1,2,2,1,335289.87224133,131,B
64,4,17/7/93,22,F,43,Will licked the spoon,Sensible,edin_semantics,sem_emo_sem_emo,0.891211255453527,2,2,2,1,335291.507029854,21,B
64,4,17/7/93,22,F,44,The dessert served Fred,Non-sensible,edin_semantics,sem_emo_sem_emo,0.726607350632548,1,2,2,1,335292.977166686,145,B
64,4,17/7/93,22,F,45,The problem solved Phil,Non-sensible,edin_semantics,sem_emo_sem_emo,1.52645937056514,2,2,2,1,335295.247049059,109,B
64,4,17/7/93,22,F,46,Phil passed the towels,Sensible,edin_semantics,sem_emo_sem_emo,0.797340143704787,2,2,2,1,335296.787867689,43,B
64,4,17/7/93,22,F,47,The shed built Rose,Non-sensible,edin_semantics,sem_emo_sem_emo,0.62119482178241,2,2,2,1,335298.152062484,121,B
64,4,17/7/93,22,F,48,Bill counted the sheets,Sensible,edin_semantics,sem_emo_sem_emo,0.915044252877124,1,1,1,1,335299.810381567,48,B
64,4,17/7/93,22,F,49,Jane punched the wall,Sensible,edin_semantics,sem_emo_sem_emo,1.11471564357635,1,1,1,1,335301.668621881,50,B
64,4,17/7/93,22,F,50,The rice stored Fred,Non-sensible,edin_semantics,sem_emo_sem_emo,0.844610049854964,2,2,2,1,335303.256343835,127,B
64,4,17/7/93,22,F,51,The sugar weighed Liz,Non-sensible,edin_semantics,sem_emo_sem_emo,0.738540687132627,1,2,2,1,335304.738241456,139,B
64,4,17/7/93,22,F,52,Erin crushed the garlic,Sensible,edin_semantics,sem_emo_sem_emo,0.691493681224529,2,1,1,1,335306.173127029,6,B
64,4,17/7/93,22,F,53,Carl sold the sofa,Sensible,edin_semantics,sem_emo_sem_emo,0.879547644173726,2,1,1,1,335307.796187477,38,B
64,4,17/7/93,22,F,54,Kate lifted the box,Sensible,edin_semantics,sem_emo_sem_emo,0.668103918316774,1,2,2,1,335309.207451087,69,B
64,4,17/7/93,22,F,55,Phil typed the letter,Sensible,edin_semantics,sem_emo_sem_emo,1.23251115786843,2,2,2,1,335311.183322707,49,B
64,4,17/7/93,22,F,56,The ticket took Tim,Non-sensible,edin_semantics,sem_emo_sem_emo,0.715442458400503,2,1,1,1,335312.641697146,128,B
64,4,17/7/93,22,F,57,The opera watched Adam,Non-sensible,edin_semantics,sem_emo_sem_emo,1.02144074958051,1,1,1,1,335314.405897649,108,B
64,4,17/7/93,22,F,58,Amy measured the thread,Sensible,edin_semantics,sem_emo_sem_emo,0.726672135991976,1,2,2,1,335315.87602069,51,B
64,4,17/7/93,22,F,59,Kate built the house,Sensible,edin_semantics,sem_emo_sem_emo,0.680057139426935,1,1,1,1,335317.29910346,46,B
64,4,17/7/93,22,F,60,Liz sliced the tomato,Sensible,edin_semantics,sem_emo_sem_emo,0.644692346511874,1,2,2,1,335318.686901938,3,B
64,4,17/7/93,22,F,61,The blanket stroked Ryan,Non-sensible,edin_semantics,sem_emo_sem_emo,0.762221022043377,1,1,1,1,335320.192370529,116,B
64,4,17/7/93,22,F,62,Amy hugged the tree,Sensible,edin_semantics,sem_emo_sem_emo,0.632826361106709,1,2,2,1,335321.568414311,11,B
64,4,17/7/93,22,F,63,Tim ate the ham,Sensible,edin_semantics,sem_emo_sem_emo,0.8091580211767,1,2,2,1,335323.120825353,67,B
64,4,17/7/93,22,F,64,The donut iced Joe,Non-sensible,edin_semantics,sem_emo_sem_emo,0.797402363328729,1,2,2,1,335324.661535901,119,B
64,4,17/7/93,22,F,65,The carrots chopped Fred,Non-sensible,edin_semantics,sem_emo_sem_emo,0.632725334435236,2,1,1,1,335326.037585456,102,B
64,4,17/7/93,22,F,66,The button pushed Ian,Non-sensible,edin_semantics,sem_emo_sem_emo,0.903614446229767,2,2,2,1,335327.684133807,101,B
64,4,17/7/93,22,F,67,The kettle carried John,Non-sensible,edin_semantics,sem_emo_sem_emo,0.609414147795178,1,2,2,1,335329.036676857,105,B
64,4,17/7/93,22,F,68,Will mashed the potatoes,Sensible,edin_semantics,sem_emo_sem_emo,0.620964865782298,2,1,1,1,335330.401014051,28,B
64,4,17/7/93,22,F,69,The report wrote Alex,Non-sensible,edin_semantics,sem_emo_sem_emo,0.844034999492578,1,2,2,1,335331.988704575,149,B
64,4,17/7/93,22,F,70,The car lent Fred,Non-sensible,edin_semantics,sem_emo_sem_emo,0.938815672183409,1,1,1,1,335333.670546198,94,B
64,4,17/7/93,22,F,71,The beer drank Jack,Non-sensible,edin_semantics,sem_emo_sem_emo,0.856368273380212,1,2,2,1,335335.270080578,135,B
64,4,17/7/93,22,F,72,Matt pushed the trolley,Sensible,edin_semantics,sem_emo_sem_emo,0.809317418781575,1,1,1,1,335336.822510542,26,B
64,4,17/7/93,22,F,73,Sam tidied the room,Sensible,edin_semantics,sem_emo_sem_emo,0.926821078232024,1,1,1,1,335338.492578868,2,B
64,4,17/7/93,22,F,74,The wallet carried Leo,Non-sensible,edin_semantics,sem_emo_sem_emo,0.750318474601954,2,1,1,1,335339.986262936,150,B
64,4,17/7/93,22,F,75,The plate licked Jane,Non-sensible,edin_semantics,sem_emo_sem_emo,0.856200216279831,1,1,1,1,335341.585788656,96,B
64,4,17/7/93,22,F,76,The debt paid Zoe,Non-sensible,edin_semantics,sem_emo_sem_emo,0.84489677316742,1,1,1,1,335343.173495215,134,B
64,4,17/7/93,22,F,77,The socks knitted Ryan,Non-sensible,edin_semantics,sem_emo_sem_emo,0.832755610346794,1,2,2,1,335344.749530466,141,B
64,4,17/7/93,22,F,78,Lily dented the lorry,Sensible,edin_semantics,sem_emo_sem_emo,1.05638443765929,1,2,2,1,335346.548986398,71,B
64,4,17/7/93,22,F,79,The curtains measured Rob,Non-sensible,edin_semantics,sem_emo_sem_emo,0.703491482301615,2,1,1,1,335347.995590105,126,B
64,4,17/7/93,22,F,80,The lemon squeezed Jay,Non-sensible,edin_semantics,sem_emo_sem_emo,0.632509810791817,2,1,1,1,335349.371611757,76,B
64,4,17/7/93,22,F,81,The radio fixed Luke,Non-sensible,edin_semantics,sem_emo_sem_emo,1.13875742949313,1,1,1,1,335351.253420475,112,B
64,4,17/7/93,22,F,82,The message typed Eve,Non-sensible,edin_semantics,sem_emo_sem_emo,0.785760560946073,2,1,1,1,335352.782352915,124,B
64,4,17/7/93,22,F,83,Hugh pulled the lever,Sensible,edin_semantics,sem_emo_sem_emo,1.06823566992534,2,2,2,1,335354.593546864,45,B
64,4,17/7/93,22,F,84,Jake dusted the shelf,Sensible,edin_semantics,sem_emo_sem_emo,1.17387334397063,2,2,2,1,335356.510610047,47,B
64,4,17/7/93,22,F,85,The pan washed Beth,Non-sensible,edin_semantics,sem_emo_sem_emo,0.667904430651106,2,1,1,1,335357.921902522,132,B
64,4,17/7/93,22,F,86,The portrait painted Jay,Non-sensible,edin_semantics,sem_emo_sem_emo,0.844462198030669,1,1,1,1,335359.509683488,110,B
64,4,17/7/93,22,F,87,The box labeled Ian,Non-sensible,edin_semantics,sem_emo_sem_emo,0.691650192369707,2,1,1,1,335360.944507163,136,B
64,4,17/7/93,22,F,88,The steak ate Mike,Non-sensible,edin_semantics,sem_emo_sem_emo,0.80898290820187,1,1,1,1,335362.496978821,142,B
64,4,17/7/93,22,F,89,Mary visited the museum,Sensible,edin_semantics,sem_emo_sem_emo,0.679606528312434,1,1,1,1,335363.920124131,16,B
64,4,17/7/93,22,F,90,The cream whisked Tom,Non-sensible,edin_semantics,sem_emo_sem_emo,0.84439741272945,1,2,2,1,335365.507851538,137,B
64,4,17/7/93,22,F,91,Ryan carried the gun,Sensible,edin_semantics,sem_emo_sem_emo,0.785817649040837,1,2,2,1,335367.036779487,75,B
64,4,17/7/93,22,F,92,Mary iced the cake,Sensible,edin_semantics,sem_emo_sem_emo,0.632828926842194,2,1,1,1,335368.4128547,44,B
64,4,17/7/93,22,F,93,The party cancelled Phil,Non-sensible,edin_semantics,sem_emo_sem_emo,0.809074634045828,1,1,1,1,335369.965297172,82,B
64,4,17/7/93,22,F,94,Jen searched the room,Sensible,edin_semantics,sem_emo_sem_emo,0.879961051803548,1,1,1,1,335371.588325869,10,B
64,4,17/7/93,22,F,95,Joe wore the jumper,Sensible,edin_semantics,sem_emo_sem_emo,0.950580630800687,2,2,2,1,335373.2819363,25,B
64,4,17/7/93,22,F,96,The bed sold Jay,Non-sensible,edin_semantics,sem_emo_sem_emo,0.915247589175124,1,2,2,1,335374.940241592,113,B
64,4,17/7/93,22,F,97,The poster read Luke,Non-sensible,edin_semantics,sem_emo_sem_emo,1.06778345524799,2,2,2,1,335376.751423033,79,B
64,4,17/7/93,22,F,98,Jon trimmed the bushes,Sensible,edin_semantics,sem_emo_sem_emo,0.632911672524642,2,1,1,1,335378.127479644,32,B
64,4,17/7/93,22,F,99,Ella watched the movie,Sensible,edin_semantics,sem_emo_sem_emo,0.797521029599011,1,2,2,1,335379.66822066,33,B
64,4,17/7/93,22,F,100,Erin posted the card,Sensible,edin_semantics,sem_emo_sem_emo,0.656308491248637,2,1,1,1,335381.067755873,36,B
64,4,17/7/93,22,F,101,The church described Erin,Non-sensible,edin_semantics,sem_emo_sem_emo,0.715246177976951,1,2,2,1,335382.526122615,117,B
64,4,17/7/93,22,F,102,Mike paid the bill,Sensible,edin_semantics,sem_emo_sem_emo,0.750237653264776,1,2,2,1,335384.019819191,59,B
64,4,17/7/93,22,F,103,The stairs climbed Ben,Non-sensible,edin_semantics,sem_emo_sem_emo,1.07996695308248,2,2,2,1,335385.842768798,143,B
64,4,17/7/93,22,F,104,Jeff watered the garden,Sensible,edin_semantics,sem_emo_sem_emo,0.727159629866946,2,1,1,1,335387.3129191,54,B
64,4,17/7/93,22,F,105,Jen weighed the flour,Sensible,edin_semantics,sem_emo_sem_emo,0.632818343117833,2,1,1,1,335388.688962562,64,B
64,4,17/7/93,22,F,106,The crate lifted Amy,Non-sensible,edin_semantics,sem_emo_sem_emo,0.68002442602301,2,1,1,1,335390.112046935,144,B
64,4,17/7/93,22,F,107,The monitor punched Erin,Non-sensible,edin_semantics,sem_emo_sem_emo,0.679704027075786,1,2,2,1,335391.535124253,125,B
64,4,17/7/93,22,F,108,Max kissed the mirror,Sensible,edin_semantics,sem_emo_sem_emo,0.762097224243917,1,2,2,1,335393.040508495,23,B
64,4,17/7/93,22,F,109,The plants watered Luke,Non-sensible,edin_semantics,sem_emo_sem_emo,0.774158848566003,2,2,2,1,335394.557764815,129,B
64,4,17/7/93,22,F,110,Phil chopped the herbs,Sensible,edin_semantics,sem_emo_sem_emo,0.844092729035765,1,2,2,1,335396.145469771,27,B
64,4,17/7/93,22,F,111,Joe solved the puzzle,Sensible,edin_semantics,sem_emo_sem_emo,0.632758047839161,2,1,1,1,335397.52151227,34,B
64,4,17/7/93,22,F,112,Carl brushed the teeth,Sensible,edin_semantics,sem_emo_sem_emo,0.90327223832719,1,1,1,1,335399.168072167,72,B
64,4,17/7/93,22,F,113,Matt kicked the bike,Sensible,edin_semantics,sem_emo_sem_emo,0.915025971888099,1,2,2,1,335400.826409851,39,B
64,4,17/7/93,22,F,114,The gum swallowed Owen,Non-sensible,edin_semantics,sem_emo_sem_emo,0.70344497798942,1,2,2,1,335402.273018049,97,B
64,4,17/7/93,22,F,115,Leo stored the wine,Sensible,edin_semantics,sem_emo_sem_emo,0.8679645335651,1,1,1,1,335403.884311293,52,B
64,4,17/7/93,22,F,116,Phil sniffed the milk,Sensible,edin_semantics,sem_emo_sem_emo,0.950296793947928,1,1,1,1,335405.577884841,18,B
64,4,17/7/93,22,F,117,Leah sucked the lolly,Sensible,edin_semantics,sem_emo_sem_emo,0.797648676030803,1,1,1,1,335407.118580315,12,B
64,4,17/7/93,22,F,118,The hospital visited Tom,Non-sensible,edin_semantics,sem_emo_sem_emo,0.76226720563136,2,2,2,1,335408.623996949,91,B
64,4,17/7/93,22,F,119,Luke swallowed the pill,Sensible,edin_semantics,sem_emo_sem_emo,0.938598865643144,1,1,1,1,335410.305830555,22,B
64,4,17/7/93,22,F,120,The bath cleaned Jack,Non-sensible,edin_semantics,sem_emo_sem_emo,0.938774299342185,1,1,1,1,335411.987672178,80,B
64,4,17/7/93,22,F,121,Kate served the dish,Sensible,edin_semantics,sem_emo_sem_emo,0.868212129105814,1,1,1,1,335413.598938161,70,B
64,4,17/7/93,22,F,122,Max lent the bucket,Sensible,edin_semantics,sem_emo_sem_emo,0.926754368527327,1,2,2,1,335415.26900296,19,B
64,4,17/7/93,22,F,123,The carrots grated Tom,Non-sensible,edin_semantics,sem_emo_sem_emo,0.997561568510719,1,1,1,1,335417.009647888,140,B
64,4,17/7/93,22,F,124,Sean read the book,Sensible,edin_semantics,sem_emo_sem_emo,0.808594837435521,2,1,1,1,335418.562106076,4,B
64,4,17/7/93,22,F,125,Beth took the photo,Sensible,edin_semantics,sem_emo_sem_emo,0.856269812444225,1,2,2,1,335420.161644625,53,B
64,4,17/7/93,22,F,126,Matt drank the juice,Sensible,edin_semantics,sem_emo_sem_emo,0.64428535324987,2,1,1,1,335421.549428991,60,B
64,4,17/7/93,22,F,127,The invite mailed Ian,Non-sensible,edin_semantics,sem_emo_sem_emo,0.807730177300982,2,2,2,1,335423.101921816,89,B
64,4,17/7/93,22,F,128,The door kicked Max,Non-sensible,edin_semantics,sem_emo_sem_emo,0.679848030209541,1,1,1,1,335424.525018698,114,B
64,4,17/7/93,22,F,129,Jen fixed the laptop,Sensible,edin_semantics,sem_emo_sem_emo,0.703053379256744,2,2,2,1,335425.971604124,37,B
64,4,17/7/93,22,F,130,The fat chewed Adam,Non-sensible,edin_semantics,sem_emo_sem_emo,0.950456833059434,1,1,1,1,335427.66519916,106,B
64,4,17/7/93,22,F,131,The shoes counted Lucy,Non-sensible,edin_semantics,sem_emo_sem_emo,0.714753873355221,1,2,2,1,335429.12357841,123,B
64,4,17/7/93,22,F,132,Lily got the kettle,Sensible,edin_semantics,sem_emo_sem_emo,0.903070826432668,1,2,2,1,335430.770151457,13,B
64,4,17/7/93,22,F,133,Jack mixed the fruits,Sensible,edin_semantics,sem_emo_sem_emo,0.691826267458964,2,1,1,1,335432.205007203,8,B
64,4,17/7/93,22,F,134,The internet searched Max,Non-sensible,edin_semantics,sem_emo_sem_emo,0.938346459297463,2,2,2,1,335433.886797191,85,B
64,4,17/7/93,22,F,135,Andy grated the cheese,Sensible,edin_semantics,sem_emo_sem_emo,0.727092278713826,2,2,2,1,335435.356976037,65,B
64,4,17/7/93,22,F,136,The dress wore Kate,Non-sensible,edin_semantics,sem_emo_sem_emo,0.714981905010063,1,1,1,1,335436.815350476,100,B
64,4,17/7/93,22,F,137,Mark washed the dishes,Sensible,edin_semantics,sem_emo_sem_emo,0.856171992956661,1,2,2,1,335438.414857273,57,B
64,4,17/7/93,22,F,138,The hotline dialed Hugh,Non-sensible,edin_semantics,sem_emo_sem_emo,0.985585576330777,1,1,1,1,335440.143786313,138,B
64,4,17/7/93,22,F,139,Liz scrubbed the bowl,Sensible,edin_semantics,sem_emo_sem_emo,0.891474886971992,2,1,1,1,335441.77853154,56,B
64,4,17/7/93,22,F,140,The trousers ironed Eve,Non-sensible,edin_semantics,sem_emo_sem_emo,0.856557818711735,1,1,1,1,335443.378040583,130,B
64,4,17/7/93,22,F,141,Tim cleaned the floor,Sensible,edin_semantics,sem_emo_sem_emo,0.868299685535021,1,2,2,1,335444.989361729,5,B
64,4,17/7/93,22,F,142,The ribbon cut Lucy,Non-sensible,edin_semantics,sem_emo_sem_emo,0.844769126735628,2,2,2,1,335446.577026275,95,B
64,4,17/7/93,22,F,143,Josh ironed the shirt,Sensible,edin_semantics,sem_emo_sem_emo,0.997460862621665,2,2,2,1,335448.317698144,55,B
64,4,17/7/93,22,F,144,The turnip mashed Ella,Non-sensible,edin_semantics,sem_emo_sem_emo,1.75037844915641,2,2,2,1,335450.811055719,103,B
64,4,17/7/93,22,F,145,The rules taught Josh,Non-sensible,edin_semantics,sem_emo_sem_emo,1.06787261524005,1,1,1,1,335452.62226827,90,B
64,4,17/7/93,22,F,146,Tim pulled the handle,Sensible,edin_semantics,sem_emo_sem_emo,0.914840916637331,1,2,2,1,335454.280607879,73,B
64,4,17/7/93,22,F,147,Jon jumped the fence,Sensible,edin_semantics,sem_emo_sem_emo,1.40900798846269,2,2,2,1,335456.432853494,17,B
64,4,17/7/93,22,F,148,Eve taught the lesson,Sensible,edin_semantics,sem_emo_sem_emo,0.714606663037557,2,2,2,1,335457.891237554,15,B
64,4,17/7/93,22,F,149,The hair trimmed Bill,Non-sensible,edin_semantics,sem_emo_sem_emo,0.867816040292382,1,2,2,1,335459.502487181,107,B
64,4,17/7/93,22,F,150,The onion sliced Liam,Non-sensible,edin_semantics,sem_emo_sem_emo,0.915313978097402,1,1,1,1,335461.160798566,78,B
64,4,17/7/93,22,F,151,The lolly sucked Leah,Non-sensible,edin_semantics,sem_emo_sem_emo,1.20097062591231,2,2,2,1,335479.602203729,12,A
64,4,17/7/93,22,F,152,The bill paid Mike,Non-sensible,edin_semantics,sem_emo_sem_emo,0.723599641816691,2,1,1,1,335481.07232677,59,A
64,4,17/7/93,22,F,153,The jumper wore Joe,Non-sensible,edin_semantics,sem_emo_sem_emo,1.13801143557066,1,1,1,1,335482.954126507,25,A
64,4,17/7/93,22,F,154,The house built Kate,Non-sensible,edin_semantics,sem_emo_sem_emo,0.926490095502231,1,2,2,1,335484.624161799,46,A
64,4,17/7/93,22,F,155,Fred chopped the carrots,Sensible,edin_semantics,sem_emo_sem_emo,0.761869513313286,1,2,2,1,335486.12959928,102,A
64,4,17/7/93,22,F,156,The fruits mixed Jack,Non-sensible,edin_semantics,sem_emo_sem_emo,1.44377912936034,1,2,2,1,335488.317164146,8,A
64,4,17/7/93,22,F,157,Ian mailed the invite,Sensible,edin_semantics,sem_emo_sem_emo,1.03207741660299,2,1,1,1,335490.093115176,89,A
64,4,17/7/93,22,F,158,Amy lifted the crate,Sensible,edin_semantics,sem_emo_sem_emo,0.82058814849006,1,2,2,1,335491.657338001,144,A
64,4,17/7/93,22,F,159,Rose built the shed,Sensible,edin_semantics,sem_emo_sem_emo,0.97323787008645,1,1,1,1,335493.374415809,121,A
64,4,17/7/93,22,F,160,The number dialed Tom,Non-sensible,edin_semantics,sem_emo_sem_emo,1.03182404802646,1,1,1,1,335495.150360104,63,A
64,4,17/7/93,22,F,161,Ian dented the bowl,Sensible,edin_semantics,sem_emo_sem_emo,1.65621580329025,2,2,2,1,335497.550402054,146,A
64,4,17/7/93,22,F,162,The box lifted Kate,Non-sensible,edin_semantics,sem_emo_sem_emo,0.725787270523142,2,1,1,1,335499.019769159,69,A
64,4,17/7/93,22,F,163,The mirror kissed Max,Non-sensible,edin_semantics,sem_emo_sem_emo,0.890893422299996,1,1,1,1,335500.654572757,23,A
64,4,17/7/93,22,F,164,The tree hugged Amy,Non-sensible,edin_semantics,sem_emo_sem_emo,0.785416108032223,1,1,1,1,335502.183503272,11,A
64,4,17/7/93,22,F,165,Ryan stroked the blanket,Sensible,edin_semantics,sem_emo_sem_emo,0.844069957907777,1,2,2,1,335503.771238055,116,A
64,4,17/7/93,22,F,166,The pen described John,Non-sensible,edin_semantics,sem_emo_sem_emo,0.80888412654167,1,2,2,1,335505.323704261,42,A
64,4,17/7/93,22,F,167,Hugh dialed the hotline,Sensible,edin_semantics,sem_emo_sem_emo,0.797110829211306,1,2,2,1,335506.864409036,138,A
64,4,17/7/93,22,F,168,The juice drank Matt,Non-sensible,edin_semantics,sem_emo_sem_emo,0.785287499544211,1,2,2,1,335508.393310045,60,A
64,4,17/7/93,22,F,169,The scarf knitted Tom,Non-sensible,edin_semantics,sem_emo_sem_emo,0.679484334134031,1,2,2,1,335509.816441564,66,A
64,4,17/7/93,22,F,170,Jack drank the beer,Sensible,edin_semantics,sem_emo_sem_emo,0.761742829054128,2,1,1,1,335511.321878724,135,A
64,4,17/7/93,22,F,171,Josh scrubbed the pot,Sensible,edin_semantics,sem_emo_sem_emo,1.25545030966168,1,1,1,1,335513.321261018,131,A
64,4,17/7/93,22,F,172,Tim took the ticket,Sensible,edin_semantics,sem_emo_sem_emo,0.796767979860306,1,2,2,1,335514.861950399,128,A
64,4,17/7/93,22,F,173,The garden watered Jeff,Non-sensible,edin_semantics,sem_emo_sem_emo,0.985305267386138,2,2,2,1,335516.590852178,54,A
64,4,17/7/93,22,F,174,Ian filed the report,Sensible,edin_semantics,sem_emo_sem_emo,0.902741447382141,1,1,1,1,335518.237397001,99,A
64,4,17/7/93,22,F,175,The fur stroked Rob,Non-sensible,edin_semantics,sem_emo_sem_emo,0.690785211510956,2,1,1,1,335519.672238957,41,A
64,4,17/7/93,22,F,176,Lucy cut the ribbon,Sensible,edin_semantics,sem_emo_sem_emo,0.713645145529881,2,1,1,1,335521.130606019,95,A
64,4,17/7/93,22,F,177,The potatoes mashed Will,Non-sensible,edin_semantics,sem_emo_sem_emo,0.666498716513161,1,2,2,1,335522.541946281,28,A
64,4,17/7/93,22,F,178,The movie watched Ella,Non-sensible,edin_semantics,sem_emo_sem_emo,0.677702736458741,1,1,1,1,335523.965085818,33,A
64,4,17/7/93,22,F,179,The sheets counted Bill,Non-sensible,edin_semantics,sem_emo_sem_emo,0.642078802105971,1,2,2,1,335525.352867298,48,A
64,4,17/7/93,22,F,180,Adam chewed the fat,Sensible,edin_semantics,sem_emo_sem_emo,1.2899183704285,1,2,2,1,335527.387505981,106,A
64,4,17/7/93,22,F,181,The table wiped Beth,Non-sensible,edin_semantics,sem_emo_sem_emo,0.971874811628368,2,2,2,1,335529.104633822,40,A
64,4,17/7/93,22,F,182,Jay squeezed the lemon,Sensible,edin_semantics,sem_emo_sem_emo,0.783835280919448,2,2,2,1,335530.633613407,76,A
64,4,17/7/93,22,F,183,Anna polished the trophy,Sensible,edin_semantics,sem_emo_sem_emo,0.677761748898774,2,2,2,1,335532.056747492,104,A
64,4,17/7/93,22,F,184,The shelf dusted Jake,Non-sensible,edin_semantics,sem_emo_sem_emo,0.631048612121958,2,1,1,1,335533.432772673,47,A
64,4,17/7/93,22,F,185,Eve ironed the trousers,Sensible,edin_semantics,sem_emo_sem_emo,0.889651275065262,1,2,2,1,335535.067547406,130,A
64,4,17/7/93,22,F,186,The sofa sold Carl,Non-sensible,edin_semantics,sem_emo_sem_emo,0.865544703847263,2,2,2,1,335536.678781958,38,A
64,4,17/7/93,22,F,187,Rob measured the curtains,Sensible,edin_semantics,sem_emo_sem_emo,0.78416273574112,1,2,2,1,335538.207723057,126,A
64,4,17/7/93,22,F,188,Mike ate the steak,Sensible,edin_semantics,sem_emo_sem_emo,0.772308616957162,2,2,2,1,335539.724891501,142,A
64,4,17/7/93,22,F,189,The money offered Matt,Non-sensible,edin_semantics,sem_emo_sem_emo,0.667601350636687,2,1,1,1,335541.136219575,9,A
64,4,17/7/93,22,F,190,Ella mashed the turnip,Sensible,edin_semantics,sem_emo_sem_emo,0.65598039503675,1,1,2,0,335542.535798085,103,A
64,4,17/7/93,22,F,191,The milk sniffed Phil,Non-sensible,edin_semantics,sem_emo_sem_emo,0.749516034033149,1,2,2,1,335544.029461306,18,A
64,4,17/7/93,22,F,192,The papers filed Lara,Non-sensible,edin_semantics,sem_emo_sem_emo,0.996920129226055,2,2,2,1,335545.77012195,24,A
64,4,17/7/93,22,F,193,John carried the kettle,Sensible,edin_semantics,sem_emo_sem_emo,0.997000629897229,1,1,1,1,335547.51074507,105,A
64,4,17/7/93,22,F,194,The wall punched Jane,Non-sensible,edin_semantics,sem_emo_sem_emo,0.891088740550913,2,2,2,1,335549.145746873,50,A
64,4,17/7/93,22,F,195,Erin punched the monitor,Sensible,edin_semantics,sem_emo_sem_emo,0.713124938250985,2,1,1,1,335550.603925031,125,A
64,4,17/7/93,22,F,196,The puzzle solved Joe,Non-sensible,edin_semantics,sem_emo_sem_emo,0.901537786587141,2,2,2,1,335552.250455101,34,A
64,4,17/7/93,22,F,197,The tomato sliced Liz,Non-sensible,edin_semantics,sem_emo_sem_emo,0.807500542025082,2,1,1,1,335553.802924193,3,A
64,4,17/7/93,22,F,198,The folder carried Dan,Non-sensible,edin_semantics,sem_emo_sem_emo,1.03114412241848,2,2,2,1,335555.578853094,30,A
64,4,17/7/93,22,F,199,Owen swallowed the gum,Sensible,edin_semantics,sem_emo_sem_emo,0.678684138634708,2,1,1,1,335557.00193875,97,A
64,4,17/7/93,22,F,200,Erin tidied the garage,Sensible,edin_semantics,sem_emo_sem_emo,0.726022037328221,2,1,1,1,335558.472081034,77,A
64,4,17/7/93,22,F,201,Dan brushed the hair,Sensible,edin_semantics,sem_emo_sem_emo,0.667192753811833,2,1,1,1,335559.883414561,147,A
64,4,17/7/93,22,F,202,Lucy counted the shoes,Sensible,edin_semantics,sem_emo_sem_emo,0.808645190380048,1,1,1,1,335561.435865693,123,A
64,4,17/7/93,22,F,203,The teeth brushed Carl,Non-sensible,edin_semantics,sem_emo_sem_emo,1.13816185307223,2,2,2,1,335563.317679221,72,A
64,4,17/7/93,22,F,204,The dishes washed Mark,Non-sensible,edin_semantics,sem_emo_sem_emo,0.702746129885782,2,1,1,1,335564.764268496,57,A
64,4,17/7/93,22,F,205,Sam sucked the candy,Sensible,edin_semantics,sem_emo_sem_emo,0.725757443578914,1,1,1,1,335566.234397952,87,A
64,4,17/7/93,22,F,206,Ian pushed the button,Sensible,edin_semantics,sem_emo_sem_emo,0.6432048487477,2,1,1,1,335567.622209258,101,A
64,4,17/7/93,22,F,207,The lesson taught Eve,Non-sensible,edin_semantics,sem_emo_sem_emo,0.714281132561155,1,1,1,1,335569.080581452,15,A
64,4,17/7/93,22,F,208,Joe iced the donut,Sensible,edin_semantics,sem_emo_sem_emo,0.714302620792296,1,1,1,1,335570.539003357,119,A
64,4,17/7/93,22,F,209,Beth washed the pan,Sensible,edin_semantics,sem_emo_sem_emo,0.996417882328387,1,2,2,1,335572.279596009,132,A
64,4,17/7/93,22,F,210,Leo carried the wallet,Sensible,edin_semantics,sem_emo_sem_emo,0.761555528733879,1,2,2,1,335573.785054016,150,A
64,4,17/7/93,22,F,211,Leo passed the salt,Sensible,edin_semantics,sem_emo_sem_emo,0.973543836618774,2,2,2,1,335575.502159726,118,A
64,4,17/7/93,22,F,212,The laptop fixed Jen,Non-sensible,edin_semantics,sem_emo_sem_emo,0.691260197258089,2,1,1,1,335576.937019001,37,A
64,4,17/7/93,22,F,213,The paper cut Jon,Non-sensible,edin_semantics,sem_emo_sem_emo,0.808679828129243,1,2,2,1,335578.489467567,20,A
64,4,17/7/93,22,F,214,The dish served Kate,Non-sensible,edin_semantics,sem_emo_sem_emo,0.85397057334194,1,2,2,1,335580.088974685,70,A
64,4,17/7/93,22,F,215,Zoe paid the debt,Sensible,edin_semantics,sem_emo_sem_emo,0.773777833674103,1,2,2,1,335581.606147939,134,A
64,4,17/7/93,22,F,216,Luke watered the plants,Sensible,edin_semantics,sem_emo_sem_emo,0.679596265312284,2,1,1,1,335583.029265026,129,A
64,4,17/7/93,22,F,217,Alex wrote the report,Sensible,edin_semantics,sem_emo_sem_emo,0.879459446237888,1,1,1,1,335584.652285705,149,A
64,4,17/7/93,22,F,218,Ben got the radio,Sensible,edin_semantics,sem_emo_sem_emo,0.738029780739453,2,2,2,1,335586.134166328,88,A
64,4,17/7/93,22,F,219,The hill climbed Luke,Non-sensible,edin_semantics,sem_emo_sem_emo,0.761628332082182,1,2,2,1,335587.639604771,68,A
64,4,17/7/93,22,F,220,Erin described the church,Sensible,edin_semantics,sem_emo_sem_emo,0.750214882194996,2,1,1,1,335589.133260295,117,A
64,4,17/7/93,22,F,221,Max kicked the door,Sensible,edin_semantics,sem_emo_sem_emo,0.738464355817996,1,2,2,1,335590.615124882,114,A
64,4,17/7/93,22,F,222,Max searched the internet,Sensible,edin_semantics,sem_emo_sem_emo,0.832236685964745,1,1,1,1,335592.191157246,85,A
64,4,17/7/93,22,F,223,The card posted Erin,Non-sensible,edin_semantics,sem_emo_sem_emo,0.820250751450658,2,2,2,1,335593.755364677,36,A
64,4,17/7/93,22,F,224,The museum visited Mary,Non-sensible,edin_semantics,sem_emo_sem_emo,0.714653167349752,1,2,2,1,335595.213876705,16,A
64,4,17/7/93,22,F,225,The bushes trimmed Jon,Non-sensible,edin_semantics,sem_emo_sem_emo,0.738242097140756,1,2,2,1,335596.69566464,32,A
64,4,17/7/93,22,F,226,Lucy wiped the desk,Sensible,edin_semantics,sem_emo_sem_emo,0.796814163506497,1,1,1,1,335598.236359794,115,A
64,4,17/7/93,22,F,227,Hugh kissed the rose,Sensible,edin_semantics,sem_emo_sem_emo,0.832016992964782,1,2,2,1,335599.812320317,98,A
64,4,17/7/93,22,F,228,Jay painted the portrait,Sensible,edin_semantics,sem_emo_sem_emo,0.797245531401131,1,2,2,1,335601.353033431,110,A
64,4,17/7/93,22,F,229,Kate wore the dress,Sensible,edin_semantics,sem_emo_sem_emo,0.644343082793057,1,2,2,1,335602.740858207,100,A
64,4,17/7/93,22,F,230,The coins polished Jon,Non-sensible,edin_semantics,sem_emo_sem_emo,0.679222947568633,2,1,1,1,335604.163907622,29,A
64,4,17/7/93,22,F,231,The room searched Jen,Non-sensible,edin_semantics,sem_emo_sem_emo,0.761711398488842,2,2,2,1,335605.669376855,10,A
64,4,17/7/93,22,F,232,The cake iced Mary,Non-sensible,edin_semantics,sem_emo_sem_emo,0.785575185029302,1,2,2,1,335607.198312502,44,A
64,4,17/7/93,22,F,233,The room tidied Sam,Non-sensible,edin_semantics,sem_emo_sem_emo,0.726604464172851,1,2,2,1,335608.668459596,2,A
64,4,17/7/93,22,F,234,Ben climbed the stairs,Sensible,edin_semantics,sem_emo_sem_emo,0.679281639284454,1,1,1,1,335610.091520237,143,A
64,4,17/7/93,22,F,235,Josh crushed the ice,Sensible,edin_semantics,sem_emo_sem_emo,0.690993358555716,2,1,1,1,335611.526364438,81,A
64,4,17/7/93,22,F,236,The parcel mailed Rob,Non-sensible,edin_semantics,sem_emo_sem_emo,0.620115920901299,2,2,2,1,335612.890671805,14,A
64,4,17/7/93,22,F,237,The lorry dented Lily,Non-sensible,edin_semantics,sem_emo_sem_emo,0.679063229239546,2,1,1,1,335614.313745916,71,A
64,4,17/7/93,22,F,238,Emma pulled the rope,Sensible,edin_semantics,sem_emo_sem_emo,0.597051367745735,2,2,2,1,335615.654524007,120,A
64,4,17/7/93,22,F,239,The bowl scrubbed Liz,Non-sensible,edin_semantics,sem_emo_sem_emo,0.679387156036682,1,2,2,1,335617.077605174,56,A
64,4,17/7/93,22,F,240,Tom visited the hospital,Sensible,edin_semantics,sem_emo_sem_emo,0.667907958617434,2,1,1,1,335618.488978469,91,A
64,4,17/7/93,22,F,241,Ryan knitted the socks,Sensible,edin_semantics,sem_emo_sem_emo,0.632178507454228,2,1,1,1,335619.865005253,141,A
64,4,17/7/93,22,F,242,Andy pulled the rope,Sensible,edin_semantics,sem_emo_sem_emo,0.632639060844667,1,2,2,1,335621.241005738,148,A
64,4,17/7/93,22,F,243,Fred lent the car,Sensible,edin_semantics,sem_emo_sem_emo,0.668036887887865,1,2,2,1,335622.652371337,94,A
64,4,17/7/93,22,F,244,Kate hugged the pillow,Sensible,edin_semantics,sem_emo_sem_emo,0.773664619599003,1,2,2,1,335624.169572494,86,A
64,4,17/7/93,22,F,245,Eve typed the message,Sensible,edin_semantics,sem_emo_sem_emo,0.99670236062957,2,2,2,1,335625.910186633,124,A
64,4,17/7/93,22,F,246,The ham ate Tim,Non-sensible,edin_semantics,sem_emo_sem_emo,0.750106158200651,1,1,1,1,335627.40384344,67,A
64,4,17/7/93,22,F,247,The handle pulled Tim,Non-sensible,edin_semantics,sem_emo_sem_emo,0.808682073198725,1,1,1,1,335628.956305476,73,A
64,4,17/7/93,22,F,248,The trolley pushed Matt,Non-sensible,edin_semantics,sem_emo_sem_emo,0.632328283507377,2,2,2,1,335630.332373633,26,A
64,4,17/7/93,22,F,249,The photo took Beth,Non-sensible,edin_semantics,sem_emo_sem_emo,0.738399570516776,1,1,1,1,335631.81425137,53,A
64,4,17/7/93,22,F,250,Alex dusted the house,Sensible,edin_semantics,sem_emo_sem_emo,0.526604977319948,2,2,2,1,335633.084469536,122,A
64,4,17/7/93,22,F,251,The book read Sean,Non-sensible,edin_semantics,sem_emo_sem_emo,0.608642817067448,1,2,2,1,335634.436982759,4,A
64,4,17/7/93,22,F,252,The ball squeezed Josh,Non-sensible,edin_semantics,sem_emo_sem_emo,0.679145654139575,1,1,1,1,335635.860093753,1,A
64,4,17/7/93,22,F,253,The story wrote Ewan,Non-sensible,edin_semantics,sem_emo_sem_emo,0.702999819070101,2,2,2,1,335637.306681424,74,A
64,4,17/7/93,22,F,254,Liam sliced the onion,Sensible,edin_semantics,sem_emo_sem_emo,0.73843003885122,2,2,2,1,335638.788643831,78,A
64,4,17/7/93,22,F,255,The toffee chewed Ben,Non-sensible,edin_semantics,sem_emo_sem_emo,0.655651978158858,1,1,1,1,335640.188169422,31,A
64,4,17/7/93,22,F,256,The fence jumped Jon,Non-sensible,edin_semantics,sem_emo_sem_emo,0.677928843884729,2,1,1,1,335641.611266625,17,A
64,4,17/7/93,22,F,257,Josh taught the rules,Sensible,edin_semantics,sem_emo_sem_emo,0.689858652476687,2,2,2,1,335643.046095431,90,A
64,4,17/7/93,22,F,258,Phil cancelled the party,Sensible,edin_semantics,sem_emo_sem_emo,0.831265867571346,1,2,2,1,335644.622101496,82,A
64,4,17/7/93,22,F,259,Luke fixed the radio,Sensible,edin_semantics,sem_emo_sem_emo,0.725220879598055,1,2,2,1,335646.092244742,112,A
64,4,17/7/93,22,F,260,The bike kicked Matt,Non-sensible,edin_semantics,sem_emo_sem_emo,0.820387057319749,1,1,1,1,335647.65646853,39,A
64,4,17/7/93,22,F,261,Tim sniffed the perfume,Sensible,edin_semantics,sem_emo_sem_emo,0.7260797668132,1,1,1,1,335649.126587723,93,A
64,4,17/7/93,22,F,262,Liz weighed the sugar,Sensible,edin_semantics,sem_emo_sem_emo,0.749701089283917,1,1,1,1,335650.62024036,139,A
64,4,17/7/93,22,F,263,The towels passed Phil,Non-sensible,edin_semantics,sem_emo_sem_emo,0.773468659957871,2,1,1,1,335652.137445686,43,A
64,4,17/7/93,22,F,264,Jack posted the gift,Sensible,edin_semantics,sem_emo_sem_emo,0.808885730162729,1,1,1,1,335653.689885593,111,A
64,4,17/7/93,22,F,265,The letter typed Phil,Non-sensible,edin_semantics,sem_emo_sem_emo,0.714920006110333,2,1,1,1,335655.148287934,49,A
64,4,17/7/93,22,F,266,The herbs chopped Phil,Non-sensible,edin_semantics,sem_emo_sem_emo,0.644216719258111,2,1,1,1,335656.536052416,27,A
64,4,17/7/93,22,F,267,Sara jumped the hedge,Sensible,edin_semantics,sem_emo_sem_emo,0.855517724936362,2,2,2,1,335658.135586154,92,A
64,4,17/7/93,22,F,268,The flour weighed Jen,Non-sensible,edin_semantics,sem_emo_sem_emo,0.820922979852185,2,2,2,1,335659.699840089,64,A
64,4,17/7/93,22,F,269,The wine stored Leo,Non-sensible,edin_semantics,sem_emo_sem_emo,0.855970260279719,1,2,2,1,335661.299345924,52,A
64,4,17/7/93,22,F,270,The lever pulled Hugh,Non-sensible,edin_semantics,sem_emo_sem_emo,0.797107301244978,1,1,1,1,335662.840031456,45,A
64,4,17/7/93,22,F,271,The cheese grated Andy,Non-sensible,edin_semantics,sem_emo_sem_emo,0.620137088408228,2,1,1,1,335664.20429264,65,A
64,4,17/7/93,22,F,272,The pill swallowed Luke,Non-sensible,edin_semantics,sem_emo_sem_emo,0.820258448773529,2,2,2,1,335665.768543368,22,A
64,4,17/7/93,22,F,273,Fred stored the rice,Sensible,edin_semantics,sem_emo_sem_emo,0.667698528675828,1,1,1,1,335667.17985701,127,A
64,4,17/7/93,22,F,274,Jane licked the plate,Sensible,edin_semantics,sem_emo_sem_emo,0.832253042724915,1,2,2,1,335668.755841908,96,A
64,4,17/7/93,22,F,275,The picture painted Ryan,Non-sensible,edin_semantics,sem_emo_sem_emo,0.750020526058506,1,1,1,1,335670.249528221,35,A
64,4,17/7/93,22,F,276,The kettle got Lily,Non-sensible,edin_semantics,sem_emo_sem_emo,0.679479523329064,2,1,1,1,335671.672593993,13,A
64,4,17/7/93,22,F,277,The garlic crushed Erin,Non-sensible,edin_semantics,sem_emo_sem_emo,0.726127554080449,2,2,2,1,335673.142756803,6,A
64,4,17/7/93,22,F,278,The plans cancelled Ian,Non-sensible,edin_semantics,sem_emo_sem_emo,0.679304731136654,2,1,1,1,335674.565875173,7,A
64,4,17/7/93,22,F,279,Fred served the dessert,Sensible,edin_semantics,sem_emo_sem_emo,0.596679012232926,1,1,1,1,335675.906626324,145,A
64,4,17/7/93,22,F,280,The jar labeled Liz,Non-sensible,edin_semantics,sem_emo_sem_emo,0.631936684774701,2,1,1,1,335677.282663371,61,A
64,4,17/7/93,22,F,281,The floor cleaned Tim,Non-sensible,edin_semantics,sem_emo_sem_emo,0.702015851216856,1,1,1,1,335678.72925425,5,A
64,4,17/7/93,22,F,282,Liam mixed the nuts,Sensible,edin_semantics,sem_emo_sem_emo,0.678343534353189,1,1,1,1,335680.152365564,83,A
64,4,17/7/93,22,F,283,Jay sold the bed,Sensible,edin_semantics,sem_emo_sem_emo,0.584683456108905,2,1,1,1,335681.481334437,113,A
64,4,17/7/93,22,F,284,Bill trimmed the hair,Sensible,edin_semantics,sem_emo_sem_emo,0.631291396857705,1,1,1,1,335682.857377578,107,A
64,4,17/7/93,22,F,285,The shirt ironed Josh,Non-sensible,edin_semantics,sem_emo_sem_emo,0.607951666228473,2,1,1,1,335684.209945003,55,A
64,4,17/7/93,22,F,286,The bucket lent Max,Non-sensible,edin_semantics,sem_emo_sem_emo,0.654793732392136,2,1,1,1,335685.609486951,19,A
64,4,17/7/93,22,F,287,The eggs whisked Dan,Non-sensible,edin_semantics,sem_emo_sem_emo,0.761637953692116,2,2,2,1,335687.114938864,62,A
64,4,17/7/93,22,F,288,The gun carried Ryan,Non-sensible,edin_semantics,sem_emo_sem_emo,0.596709801291581,2,1,1,1,335688.455669489,75,A
64,4,17/7/93,22,F,289,Jack cleaned the bath,Sensible,edin_semantics,sem_emo_sem_emo,0.819812006957363,1,2,2,1,335690.019923104,80,A
64,4,17/7/93,22,F,290,The spoon licked Will,Non-sensible,edin_semantics,sem_emo_sem_emo,0.620223361998796,1,1,1,1,335691.384203211,21,A
64,4,17/7/93,22,F,291,Luke read the poster,Sensible,edin_semantics,sem_emo_sem_emo,0.491172833251767,1,1,1,1,335692.619091222,79,A
64,4,17/7/93,22,F,292,Phil solved the problem,Sensible,edin_semantics,sem_emo_sem_emo,0.632442138972692,1,1,1,1,335693.995189205,109,A
64,4,17/7/93,22,F,293,The thread measured Amy,Non-sensible,edin_semantics,sem_emo_sem_emo,0.596733213867992,1,1,1,1,335695.335932338,51,A
64,4,17/7/93,22,F,294,The room entered Ryan,Non-sensible,edin_semantics,sem_emo_sem_emo,0.773397139448207,2,2,2,1,335696.853129646,58,A
64,4,17/7/93,22,F,295,Ian labeled the box,Sensible,edin_semantics,sem_emo_sem_emo,0.632554070150945,2,2,2,1,335698.229150337,136,A
64,4,17/7/93,22,F,296,Tom grated the carrots,Sensible,edin_semantics,sem_emo_sem_emo,0.79653032659553,2,2,2,1,335699.769849659,140,A
64,4,17/7/93,22,F,297,Adam watched the opera,Sensible,edin_semantics,sem_emo_sem_emo,0.808841791527811,1,2,2,1,335701.322309451,108,A
64,4,17/7/93,22,F,298,Tom whisked the cream,Sensible,edin_semantics,sem_emo_sem_emo,0.738267113280017,1,1,1,1,335702.804205789,137,A
64,4,17/7/93,22,F,299,Joe entered the office,Sensible,edin_semantics,sem_emo_sem_emo,0.749978511768859,2,1,1,1,335704.297862275,133,A
64,4,17/7/93,22,F,300,Tom offered the sweets,Sensible,edin_semantics,sem_emo_sem_emo,0.655557686579414,2,2,2,1,335705.697470292,84,A
