subject_column,AssignedList_column,subject_dob_column,subject_age_column,subject_gender_column,trialnum_column,Stim_column,Type_column,Experiment_column,OrderGroup_column,ReactionTime_column,StimSide_column,StimPosition_column,Response_column,Valid_column,TrialEndSecs_column,PairID_column,List_column
66,1,3/7/87,28,F,1,Adam chewed the fat,Sensible,edin_semantics,emo_sem_emo_sem,4.08435151132289,2,2,2,1,340492.936468325,106,A
66,1,3/7/87,28,F,2,Emma pulled the rope,Sensible,edin_semantics,emo_sem_emo_sem,1.31481134629576,2,2,2,1,340494.994676054,120,A
66,1,3/7/87,28,F,3,The toffee chewed Ben,Non-sensible,edin_semantics,emo_sem_emo_sem,0.962210566503927,1,1,1,1,340496.700062669,31,A
66,1,3/7/87,28,F,4,The lolly sucked Leah,Non-sensible,edin_semantics,emo_sem_emo_sem,0.903702323383186,1,2,2,1,340498.346600436,12,A
66,1,3/7/87,28,F,5,The sofa sold Carl,Non-sensible,edin_semantics,emo_sem_emo_sem,1.08012538857292,1,2,2,1,340500.169620281,38,A
66,1,3/7/87,28,F,6,Dan brushed the hair,Sensible,edin_semantics,emo_sem_emo_sem,0.985763575765304,1,1,1,1,340501.898447011,147,A
66,1,3/7/87,28,F,7,The flour weighed Jen,Non-sensible,edin_semantics,emo_sem_emo_sem,2.99708978994749,2,2,2,1,340505.638505985,64,A
66,1,3/7/87,28,F,8,The jar labeled Liz,Non-sensible,edin_semantics,emo_sem_emo_sem,0.985755237052217,1,1,1,1,340507.367379862,61,A
66,1,3/7/87,28,F,9,Eve typed the message,Sensible,edin_semantics,emo_sem_emo_sem,0.868265047844034,1,2,2,1,340508.9786436,124,A
66,1,3/7/87,28,F,10,Ian mailed the invite,Sensible,edin_semantics,emo_sem_emo_sem,0.797960736206733,1,1,1,1,340510.519333622,89,A
66,1,3/7/87,28,F,11,Ryan stroked the blanket,Sensible,edin_semantics,emo_sem_emo_sem,0.973921002936549,1,2,2,1,340512.236477818,116,A
66,1,3/7/87,28,F,12,The plans cancelled Ian,Non-sensible,edin_semantics,emo_sem_emo_sem,1.20914127957076,2,1,1,1,340514.1888192,7,A
66,1,3/7/87,28,F,13,Lucy counted the shoes,Sensible,edin_semantics,emo_sem_emo_sem,1.13874652504455,1,1,1,1,340516.070623748,123,A
66,1,3/7/87,28,F,14,The garlic crushed Erin,Non-sensible,edin_semantics,emo_sem_emo_sem,1.44417489744956,2,2,2,1,340518.258171295,6,A
66,1,3/7/87,28,F,15,Mike ate the steak,Sensible,edin_semantics,emo_sem_emo_sem,1.63292418059427,2,2,2,1,340520.633892112,142,A
66,1,3/7/87,28,F,16,Tom offered the sweets,Sensible,edin_semantics,emo_sem_emo_sem,1.18560398567934,2,2,2,1,340522.562674391,84,A
66,1,3/7/87,28,F,17,Kate hugged the pillow,Sensible,edin_semantics,emo_sem_emo_sem,2.70264157524798,2,2,2,1,340526.00869503,86,A
66,1,3/7/87,28,F,18,The number dialed Tom,Non-sensible,edin_semantics,emo_sem_emo_sem,1.07984251383459,1,1,1,1,340527.831694028,63,A
66,1,3/7/87,28,F,19,Fred served the dessert,Sensible,edin_semantics,emo_sem_emo_sem,1.02142663794803,2,1,1,1,340529.59584482,145,A
66,1,3/7/87,28,F,20,The parcel mailed Rob,Non-sensible,edin_semantics,emo_sem_emo_sem,1.00953210855369,1,2,2,1,340531.348228409,14,A
66,1,3/7/87,28,F,21,The fur stroked Rob,Non-sensible,edin_semantics,emo_sem_emo_sem,1.03259505808819,2,1,1,1,340533.124135821,41,A
66,1,3/7/87,28,F,22,Ian pushed the button,Sensible,edin_semantics,emo_sem_emo_sem,1.33837878785562,1,1,1,1,340535.205905218,101,A
66,1,3/7/87,28,F,23,The teeth brushed Carl,Non-sensible,edin_semantics,emo_sem_emo_sem,1.75035535736242,1,2,2,1,340537.699221421,72,A
66,1,3/7/87,28,F,24,The spoon licked Will,Non-sensible,edin_semantics,emo_sem_emo_sem,1.13849283580203,1,1,1,1,340539.580986842,21,A
66,1,3/7/87,28,F,25,Joe entered the office,Sensible,edin_semantics,emo_sem_emo_sem,0.903885454346891,1,1,1,1,340541.227584583,133,A
66,1,3/7/87,28,F,26,The bucket lent Max,Non-sensible,edin_semantics,emo_sem_emo_sem,0.809291440469678,1,1,1,1,340542.780023528,19,A
66,1,3/7/87,28,F,27,Rob measured the curtains,Sensible,edin_semantics,emo_sem_emo_sem,1.15034919953905,2,2,2,1,340544.673589186,126,A
66,1,3/7/87,28,F,28,John carried the kettle,Sensible,edin_semantics,emo_sem_emo_sem,0.750608084432315,1,1,1,1,340546.167231882,105,A
66,1,3/7/87,28,F,29,Ella mashed the turnip,Sensible,edin_semantics,emo_sem_emo_sem,1.06840051978361,1,1,1,1,340547.978404022,103,A
66,1,3/7/87,28,F,30,The milk sniffed Phil,Non-sensible,edin_semantics,emo_sem_emo_sem,1.04490780591732,1,2,2,1,340549.766106541,18,A
66,1,3/7/87,28,F,31,Ben climbed the stairs,Sensible,edin_semantics,emo_sem_emo_sem,0.797761248599272,1,1,1,1,340551.3068668,143,A
66,1,3/7/87,28,F,32,Erin tidied the garage,Sensible,edin_semantics,emo_sem_emo_sem,0.99764335207874,1,1,1,1,340553.047450151,77,A
66,1,3/7/87,28,F,33,The table wiped Beth,Non-sensible,edin_semantics,emo_sem_emo_sem,0.915082739258651,1,2,2,1,340554.705781421,40,A
66,1,3/7/87,28,F,34,The book read Sean,Non-sensible,edin_semantics,emo_sem_emo_sem,1.09145833784714,1,2,2,1,340556.540486686,4,A
66,1,3/7/87,28,F,35,Fred stored the rice,Sensible,edin_semantics,emo_sem_emo_sem,0.903461142268498,1,1,1,1,340558.187032792,127,A
66,1,3/7/87,28,F,36,Luke read the poster,Sensible,edin_semantics,emo_sem_emo_sem,0.962639368721284,1,1,1,1,340559.892423255,79,A
66,1,3/7/87,28,F,37,Owen swallowed the gum,Sensible,edin_semantics,emo_sem_emo_sem,1.64449831104139,2,1,1,1,340562.27990871,97,A
66,1,3/7/87,28,F,38,The puzzle solved Joe,Non-sensible,edin_semantics,emo_sem_emo_sem,1.02084549394203,1,2,2,1,340564.044078746,34,A
66,1,3/7/87,28,F,39,The cake iced Mary,Non-sensible,edin_semantics,emo_sem_emo_sem,0.997917888103984,1,2,2,1,340565.784716619,44,A
66,1,3/7/87,28,F,40,Alex dusted the house,Sensible,edin_semantics,emo_sem_emo_sem,1.04488760058302,1,2,2,1,340567.572381933,122,A
66,1,3/7/87,28,F,41,The juice drank Matt,Non-sensible,edin_semantics,emo_sem_emo_sem,1.1271483405144,2,2,2,1,340569.442437238,60,A
66,1,3/7/87,28,F,42,The room entered Ryan,Non-sensible,edin_semantics,emo_sem_emo_sem,2.17382844322128,1,2,2,1,340572.359176815,58,A
66,1,3/7/87,28,F,43,The mirror kissed Max,Non-sensible,edin_semantics,emo_sem_emo_sem,1.0324122479069,1,1,1,1,340574.135091925,23,A
66,1,3/7/87,28,F,44,Alex wrote the report,Sensible,edin_semantics,emo_sem_emo_sem,1.25632010126719,2,1,1,1,340576.134480633,149,A
66,1,3/7/87,28,F,45,Ian filed the report,Sensible,edin_semantics,emo_sem_emo_sem,1.07951666269219,2,1,1,1,340577.95743024,99,A
66,1,3/7/87,28,F,46,The hill climbed Luke,Non-sensible,edin_semantics,emo_sem_emo_sem,1.17426045256434,1,2,2,1,340579.874537683,68,A
66,1,3/7/87,28,F,47,The potatoes mashed Will,Non-sensible,edin_semantics,emo_sem_emo_sem,1.27981506020296,1,2,2,1,340581.897415256,28,A
66,1,3/7/87,28,F,48,Fred chopped the carrots,Sensible,edin_semantics,emo_sem_emo_sem,1.33896057331003,2,2,2,1,340583.97920069,102,A
66,1,3/7/87,28,F,49,The bike kicked Matt,Non-sensible,edin_semantics,emo_sem_emo_sem,0.83323316188762,1,1,1,1,340585.555129462,39,A
66,1,3/7/87,28,F,50,Fred lent the car,Sensible,edin_semantics,emo_sem_emo_sem,1.327011200774,2,2,2,1,340587.625060456,94,A
66,1,3/7/87,28,F,51,Joe iced the donut,Sensible,edin_semantics,emo_sem_emo_sem,0.985553825099487,1,1,1,1,340589.353958707,119,A
66,1,3/7/87,28,F,52,Liz weighed the sugar,Sensible,edin_semantics,emo_sem_emo_sem,1.479376444011,2,1,1,1,340591.576812675,139,A
66,1,3/7/87,28,F,53,Rose built the shed,Sensible,edin_semantics,emo_sem_emo_sem,1.09156353387516,1,1,1,1,340593.411492604,121,A
66,1,3/7/87,28,F,54,Luke watered the plants,Sensible,edin_semantics,emo_sem_emo_sem,0.880032251589,1,1,1,1,340595.03453445,129,A
66,1,3/7/87,28,F,55,Jay sold the bed,Sensible,edin_semantics,emo_sem_emo_sem,2.1267153689987,2,1,1,1,340597.904261658,113,A
66,1,3/7/87,28,F,56,Leo passed the salt,Sensible,edin_semantics,emo_sem_emo_sem,1.27997445786605,2,2,2,1,340599.927167135,118,A
66,1,3/7/87,28,F,57,The eggs whisked Dan,Non-sensible,edin_semantics,emo_sem_emo_sem,1.26824157114606,1,2,2,1,340601.93831984,62,A
66,1,3/7/87,28,F,58,Jack posted the gift,Sensible,edin_semantics,emo_sem_emo_sem,3.06727254885482,2,1,1,1,340605.748933286,111,A
66,1,3/7/87,28,F,59,Phil solved the problem,Sensible,edin_semantics,emo_sem_emo_sem,1.0446746427333,2,1,1,1,340607.536600526,109,A
66,1,3/7/87,28,F,60,Josh scrubbed the pot,Sensible,edin_semantics,emo_sem_emo_sem,1.16221710928949,1,1,1,1,340609.441913503,131,A
66,1,3/7/87,28,F,61,The money offered Matt,Non-sensible,edin_semantics,emo_sem_emo_sem,1.5974776041694,2,1,1,1,340611.782375686,9,A
66,1,3/7/87,28,F,62,Lucy wiped the desk,Sensible,edin_semantics,emo_sem_emo_sem,1.07982615713263,1,1,1,1,340613.605347423,115,A
66,1,3/7/87,28,F,63,The thread measured Amy,Non-sensible,edin_semantics,emo_sem_emo_sem,1.1975863922853,2,1,1,1,340615.545915507,51,A
66,1,3/7/87,28,F,64,Phil cancelled the party,Sensible,edin_semantics,emo_sem_emo_sem,3.32600959338015,2,2,2,1,340619.615322445,82,A
66,1,3/7/87,28,F,65,The trolley pushed Matt,Non-sensible,edin_semantics,emo_sem_emo_sem,1.29119034454925,2,2,2,1,340621.649913983,26,A
66,1,3/7/87,28,F,66,Anna polished the trophy,Sensible,edin_semantics,emo_sem_emo_sem,1.70315312314779,2,2,2,1,340624.096222628,104,A
66,1,3/7/87,28,F,67,The kettle got Lily,Non-sensible,edin_semantics,emo_sem_emo_sem,1.29139143577777,2,1,1,1,340626.130876065,13,A
66,1,3/7/87,28,F,68,Jack drank the beer,Sensible,edin_semantics,emo_sem_emo_sem,1.10308057634393,1,1,1,1,340627.977394397,135,A
66,1,3/7/87,28,F,69,Erin punched the monitor,Sensible,edin_semantics,emo_sem_emo_sem,1.32704936643131,2,1,1,1,340630.047339502,125,A
66,1,3/7/87,28,F,70,The bowl scrubbed Liz,Non-sensible,edin_semantics,emo_sem_emo_sem,1.16222256148467,2,2,2,1,340631.952669799,56,A
66,1,3/7/87,28,F,71,The sheets counted Bill,Non-sensible,edin_semantics,emo_sem_emo_sem,2.25596217816928,2,2,2,1,340634.951719827,48,A
66,1,3/7/87,28,F,72,Zoe paid the debt,Sensible,edin_semantics,emo_sem_emo_sem,1.05654223170131,1,2,2,1,340636.751152346,134,A
66,1,3/7/87,28,F,73,The garden watered Jeff,Non-sensible,edin_semantics,emo_sem_emo_sem,2.73815838928567,2,2,2,1,340640.232458881,54,A
66,1,3/7/87,28,F,74,The towels passed Phil,Non-sensible,edin_semantics,emo_sem_emo_sem,1.43237658392172,1,1,1,1,340642.408283483,43,A
66,1,3/7/87,28,F,75,Sam sucked the candy,Sensible,edin_semantics,emo_sem_emo_sem,1.04435424384428,2,1,1,1,340644.195950081,87,A
66,1,3/7/87,28,F,76,The lever pulled Hugh,Non-sensible,edin_semantics,emo_sem_emo_sem,2.24420652037952,2,1,1,1,340647.183276202,45,A
66,1,3/7/87,28,F,77,Jay squeezed the lemon,Sensible,edin_semantics,emo_sem_emo_sem,2.73810226342175,2,2,2,1,340650.664536554,76,A
66,1,3/7/87,28,F,78,The lorry dented Lily,Non-sensible,edin_semantics,emo_sem_emo_sem,1.47988318110583,2,1,1,1,340652.887431895,71,A
66,1,3/7/87,28,F,79,The fruits mixed Jack,Non-sensible,edin_semantics,emo_sem_emo_sem,1.3151323866332,2,2,2,1,340654.945592799,8,A
66,1,3/7/87,28,F,80,Lucy cut the ribbon,Sensible,edin_semantics,emo_sem_emo_sem,0.9740621195524,2,1,1,1,340656.662704282,95,A
66,1,3/7/87,28,F,81,Erin described the church,Sensible,edin_semantics,emo_sem_emo_sem,1.13881387613947,1,1,1,1,340658.544500171,117,A
66,1,3/7/87,28,F,82,The house built Kate,Non-sensible,edin_semantics,emo_sem_emo_sem,1.23229723778786,1,2,2,1,340660.520296743,46,A
66,1,3/7/87,28,F,83,The shelf dusted Jake,Non-sensible,edin_semantics,emo_sem_emo_sem,0.962114671361633,1,1,1,1,340662.225725372,47,A
66,1,3/7/87,28,F,84,Eve ironed the trousers,Sensible,edin_semantics,emo_sem_emo_sem,1.1739422986866,2,2,2,1,340664.142797856,130,A
66,1,3/7/87,28,F,85,The scarf knitted Tom,Non-sensible,edin_semantics,emo_sem_emo_sem,1.90318307833513,2,2,2,1,340666.789019714,66,A
66,1,3/7/87,28,F,86,The room tidied Sam,Non-sensible,edin_semantics,emo_sem_emo_sem,2.50305998616386,2,2,2,1,340670.035097954,2,A
66,1,3/7/87,28,F,87,Hugh kissed the rose,Sensible,edin_semantics,emo_sem_emo_sem,1.42058276041644,1,2,2,1,340672.199088964,98,A
66,1,3/7/87,28,F,88,The bill paid Mike,Non-sensible,edin_semantics,emo_sem_emo_sem,0.962105691200122,1,1,1,1,340673.90447622,59,A
66,1,3/7/87,28,F,89,Tom grated the carrots,Sensible,edin_semantics,emo_sem_emo_sem,0.938622598943766,1,2,2,1,340675.586314957,140,A
66,1,3/7/87,28,F,90,Hugh dialed the hotline,Sensible,edin_semantics,emo_sem_emo_sem,1.50323766481597,1,2,2,1,340677.832691466,138,A
66,1,3/7/87,28,F,91,Beth washed the pan,Sensible,edin_semantics,emo_sem_emo_sem,1.44465276971459,2,2,2,1,340680.020226184,132,A
66,1,3/7/87,28,F,92,Liam sliced the onion,Sensible,edin_semantics,emo_sem_emo_sem,1.07975399523275,1,2,2,1,340681.843166491,78,A
66,1,3/7/87,28,F,93,The handle pulled Tim,Non-sensible,edin_semantics,emo_sem_emo_sem,1.57393068860983,2,1,1,1,340684.160133394,73,A
66,1,3/7/87,28,F,94,Ryan knitted the socks,Sensible,edin_semantics,emo_sem_emo_sem,1.27974706765963,1,1,1,1,340686.183066131,141,A
66,1,3/7/87,28,F,95,The paper cut Jon,Non-sensible,edin_semantics,emo_sem_emo_sem,1.9032956509036,2,2,2,1,340688.829291197,20,A
66,1,3/7/87,28,F,96,The movie watched Ella,Non-sensible,edin_semantics,emo_sem_emo_sem,1.99720973911462,2,1,1,1,340691.569626952,33,A
66,1,3/7/87,28,F,97,Jane licked the plate,Sensible,edin_semantics,emo_sem_emo_sem,1.26784933108138,1,2,2,1,340693.580771318,96,A
66,1,3/7/87,28,F,98,The laptop fixed Jen,Non-sensible,edin_semantics,emo_sem_emo_sem,1.26793047308456,2,1,1,1,340695.591936531,37,A
66,1,3/7/87,28,F,99,The story wrote Ewan,Non-sensible,edin_semantics,emo_sem_emo_sem,1.85601355746621,1,2,2,1,340698.191135437,74,A
66,1,3/7/87,28,F,100,The coins polished Jon,Non-sensible,edin_semantics,emo_sem_emo_sem,1.59737337025581,1,1,1,1,340700.531603714,29,A
66,1,3/7/87,28,F,101,Bill trimmed the hair,Sensible,edin_semantics,emo_sem_emo_sem,2.29104826570256,2,1,2,0,340703.565930016,107,A
66,1,3/7/87,28,F,102,Tim took the ticket,Sensible,edin_semantics,emo_sem_emo_sem,1.82038609514711,1,2,2,1,340706.129877023,128,A
66,1,3/7/87,28,F,103,Luke fixed the radio,Sensible,edin_semantics,emo_sem_emo_sem,0.891331204562448,1,2,2,1,340707.76469794,112,A
66,1,3/7/87,28,F,104,The lesson taught Eve,Non-sensible,edin_semantics,emo_sem_emo_sem,0.903532341995742,1,1,1,1,340709.411202352,15,A
66,1,3/7/87,28,F,105,The pen described John,Non-sensible,edin_semantics,emo_sem_emo_sem,1.64391235634685,2,2,2,1,340711.798792683,42,A
66,1,3/7/87,28,F,106,The tree hugged Amy,Non-sensible,edin_semantics,emo_sem_emo_sem,1.4440366672352,2,1,1,1,340713.986458255,11,A
66,1,3/7/87,28,F,107,The box lifted Kate,Non-sensible,edin_semantics,emo_sem_emo_sem,1.4190872447216,1,1,2,0,340716.150289866,69,A
66,1,3/7/87,28,F,108,The ham ate Tim,Non-sensible,edin_semantics,emo_sem_emo_sem,1.85457320557907,1,1,1,1,340718.749507375,67,A
66,1,3/7/87,28,F,109,The fence jumped Jon,Non-sensible,edin_semantics,emo_sem_emo_sem,1.00810073676985,1,1,1,1,340720.501924959,17,A
66,1,3/7/87,28,F,110,The card posted Erin,Non-sensible,edin_semantics,emo_sem_emo_sem,1.03202995011816,1,2,2,1,340722.277848728,36,A
66,1,3/7/87,28,F,111,The bushes trimmed Jon,Non-sensible,edin_semantics,emo_sem_emo_sem,1.2317895386368,2,2,2,1,340724.253693407,32,A
66,1,3/7/87,28,F,112,Max kicked the door,Sensible,edin_semantics,emo_sem_emo_sem,1.0323888353887,1,2,2,1,340726.029624553,114,A
66,1,3/7/87,28,F,113,Tom visited the hospital,Sensible,edin_semantics,emo_sem_emo_sem,1.10315883188741,2,1,1,1,340727.876189389,91,A
66,1,3/7/87,28,F,114,The jumper wore Joe,Non-sensible,edin_semantics,emo_sem_emo_sem,1.38401462737238,2,1,1,1,340730.004902841,25,A
66,1,3/7/87,28,F,115,The cheese grated Andy,Non-sensible,edin_semantics,emo_sem_emo_sem,1.12555692961905,2,1,1,1,340731.874904907,65,A
66,1,3/7/87,28,F,116,The dishes washed Mark,Non-sensible,edin_semantics,emo_sem_emo_sem,1.13803677243413,2,1,1,1,340733.756645632,57,A
66,1,3/7/87,28,F,117,Sara jumped the hedge,Sensible,edin_semantics,emo_sem_emo_sem,1.23274656606372,2,2,2,1,340735.732575623,92,A
66,1,3/7/87,28,F,118,The floor cleaned Tim,Non-sensible,edin_semantics,emo_sem_emo_sem,0.903014059062116,1,1,1,1,340737.379093826,5,A
66,1,3/7/87,28,F,119,Tom whisked the cream,Sensible,edin_semantics,emo_sem_emo_sem,1.46769583458081,1,1,1,1,340739.590204645,137,A
66,1,3/7/87,28,F,120,The papers filed Lara,Non-sensible,edin_semantics,emo_sem_emo_sem,1.25591278733918,2,2,2,1,340741.589607144,24,A
66,1,3/7/87,28,F,121,The herbs chopped Phil,Non-sensible,edin_semantics,emo_sem_emo_sem,1.05474972963566,2,1,1,1,340743.389002459,27,A
66,1,3/7/87,28,F,122,Leo carried the wallet,Sensible,edin_semantics,emo_sem_emo_sem,1.38463329552906,2,2,2,1,340745.517771396,150,A
66,1,3/7/87,28,F,123,The shirt ironed Josh,Non-sensible,edin_semantics,emo_sem_emo_sem,0.901625343016349,1,1,1,1,340747.164322313,55,A
66,1,3/7/87,28,F,124,The wall punched Jane,Non-sensible,edin_semantics,emo_sem_emo_sem,1.11389748769579,2,2,2,1,340749.022577059,50,A
66,1,3/7/87,28,F,125,Amy lifted the crate,Sensible,edin_semantics,emo_sem_emo_sem,0.973689122591168,1,2,2,1,340750.739681166,144,A
66,1,3/7/87,28,F,126,The room searched Jen,Non-sensible,edin_semantics,emo_sem_emo_sem,0.856358010380063,1,2,2,1,340752.339222601,10,A
66,1,3/7/87,28,F,127,Andy pulled the rope,Sensible,edin_semantics,emo_sem_emo_sem,0.914909550687298,1,2,2,1,340753.997512819,148,A
66,1,3/7/87,28,F,128,Jay painted the portrait,Sensible,edin_semantics,emo_sem_emo_sem,0.973605735460296,1,2,2,1,340755.714644187,110,A
66,1,3/7/87,28,F,129,Jack cleaned the bath,Sensible,edin_semantics,emo_sem_emo_sem,3.66707793617388,2,2,2,1,340760.125097659,80,A
66,1,3/7/87,28,F,130,Ian dented the bowl,Sensible,edin_semantics,emo_sem_emo_sem,0.902865886571817,1,2,2,1,340761.771633502,146,A
66,1,3/7/87,28,F,131,Max searched the internet,Sensible,edin_semantics,emo_sem_emo_sem,0.926357959047891,1,1,1,1,340763.441704073,85,A
66,1,3/7/87,28,F,132,The folder carried Dan,Non-sensible,edin_semantics,emo_sem_emo_sem,0.855120674008504,1,2,2,1,340765.041211512,30,A
66,1,3/7/87,28,F,133,Liam mixed the nuts,Sensible,edin_semantics,emo_sem_emo_sem,1.01981309743132,1,1,1,1,340766.805329591,83,A
66,1,3/7/87,28,F,134,The picture painted Ryan,Non-sensible,edin_semantics,emo_sem_emo_sem,1.04413070221199,1,1,1,1,340768.593040769,35,A
66,1,3/7/87,28,F,135,Tim sniffed the perfume,Sensible,edin_semantics,emo_sem_emo_sem,0.973262565443292,2,1,1,1,340770.310167647,93,A
66,1,3/7/87,28,F,136,The dish served Kate,Non-sensible,edin_semantics,emo_sem_emo_sem,0.950057216337882,2,2,2,1,340772.003753703,70,A
66,1,3/7/87,28,F,137,The museum visited Mary,Non-sensible,edin_semantics,emo_sem_emo_sem,1.31475778610911,2,2,2,1,340774.061958545,16,A
66,1,3/7/87,28,F,138,Ian labeled the box,Sensible,edin_semantics,emo_sem_emo_sem,0.85607289057225,1,2,2,1,340775.66146887,136,A
66,1,3/7/87,28,F,139,The gun carried Ryan,Non-sensible,edin_semantics,emo_sem_emo_sem,0.667814949934836,1,1,1,1,340777.072814584,75,A
66,1,3/7/87,28,F,140,Adam watched the opera,Sensible,edin_semantics,emo_sem_emo_sem,0.856089888722636,1,2,2,1,340778.672324589,108,A
66,1,3/7/87,28,F,141,The letter typed Phil,Non-sensible,edin_semantics,emo_sem_emo_sem,1.02085703989724,2,1,1,1,340780.43646159,49,A
66,1,3/7/87,28,F,142,The photo took Beth,Non-sensible,edin_semantics,emo_sem_emo_sem,0.926656228315551,1,1,1,1,340782.106535689,53,A
66,1,3/7/87,28,F,143,The tomato sliced Liz,Non-sensible,edin_semantics,emo_sem_emo_sem,1.05628693889594,1,1,1,1,340783.90646821,3,A
66,1,3/7/87,28,F,144,Josh crushed the ice,Sensible,edin_semantics,emo_sem_emo_sem,1.03194303507917,1,1,1,1,340785.681894863,81,A
66,1,3/7/87,28,F,145,Kate wore the dress,Sensible,edin_semantics,emo_sem_emo_sem,0.996700115560088,2,2,2,1,340787.422544282,100,A
66,1,3/7/87,28,F,146,Ben got the radio,Sensible,edin_semantics,emo_sem_emo_sem,0.997198834607843,1,2,2,1,340789.163189852,88,A
66,1,3/7/87,28,F,147,The ball squeezed Josh,Non-sensible,edin_semantics,emo_sem_emo_sem,0.891374501748942,1,1,1,1,340790.797989922,1,A
66,1,3/7/87,28,F,148,The wine stored Leo,Non-sensible,edin_semantics,emo_sem_emo_sem,0.856028310605325,1,2,2,1,340792.397490946,52,A
66,1,3/7/87,28,F,149,Josh taught the rules,Sensible,edin_semantics,emo_sem_emo_sem,1.11478523968253,2,2,2,1,340794.25580695,90,A
66,1,3/7/87,28,F,150,The pill swallowed Luke,Non-sensible,edin_semantics,emo_sem_emo_sem,1.06758653337602,2,2,2,1,340796.066964017,22,A
66,1,3/7/87,28,F,151,Beth wiped the table,Sensible,edin_semantics,emo_sem_emo_sem,1.36648312950274,2,1,1,1,340828.939219458,40,B
66,1,3/7/87,28,F,152,Amy hugged the tree,Sensible,edin_semantics,emo_sem_emo_sem,1.38427216524724,1,2,2,1,340831.067988716,11,B
66,1,3/7/87,28,F,153,The button pushed Ian,Non-sensible,edin_semantics,emo_sem_emo_sem,0.85569187568035,1,2,2,1,340832.66764112,101,B
66,1,3/7/87,28,F,154,The rice stored Fred,Non-sensible,edin_semantics,emo_sem_emo_sem,1.78493470791727,2,2,2,1,340835.196143154,127,B
66,1,3/7/87,28,F,155,The shoes counted Lucy,Non-sensible,edin_semantics,emo_sem_emo_sem,0.902585577627178,1,2,2,1,340836.842703051,123,B
66,1,3/7/87,28,F,156,Matt kicked the bike,Sensible,edin_semantics,emo_sem_emo_sem,0.808878995012492,1,2,2,1,340838.395150013,39,B
66,1,3/7/87,28,F,157,Tom dialed the number,Sensible,edin_semantics,emo_sem_emo_sem,0.797261888161302,1,2,2,1,340839.935852223,63,B
66,1,3/7/87,28,F,158,Carl sold the sofa,Sensible,edin_semantics,emo_sem_emo_sem,0.997287673992105,2,1,1,1,340841.676464759,38,B
66,1,3/7/87,28,F,159,Ewan wrote the story,Sensible,edin_semantics,emo_sem_emo_sem,0.938186420185957,2,1,1,1,340843.358324663,74,B
66,1,3/7/87,28,F,160,Kate built the house,Sensible,edin_semantics,emo_sem_emo_sem,1.04392255522544,2,1,1,1,340845.146027823,46,B
66,1,3/7/87,28,F,161,Jon polished the coins,Sensible,edin_semantics,emo_sem_emo_sem,1.11457869625883,2,2,2,1,340847.004266533,29,B
66,1,3/7/87,28,F,162,Will mashed the potatoes,Sensible,edin_semantics,emo_sem_emo_sem,0.797372215660289,1,1,1,1,340848.54498991,28,B
66,1,3/7/87,28,F,163,The car lent Fred,Non-sensible,edin_semantics,emo_sem_emo_sem,1.43226657703053,1,1,1,1,340850.720762235,94,B
66,1,3/7/87,28,F,164,The office entered Joe,Non-sensible,edin_semantics,emo_sem_emo_sem,1.04413358872989,1,2,2,1,340852.508475658,133,B
66,1,3/7/87,28,F,165,Josh squeezed the ball,Sensible,edin_semantics,emo_sem_emo_sem,0.77369572938187,1,2,2,1,340854.02567938,1,B
66,1,3/7/87,28,F,166,The salt passed Leo,Non-sensible,edin_semantics,emo_sem_emo_sem,0.891520749952178,1,1,1,1,340855.660440643,118,B
66,1,3/7/87,28,F,167,Ryan entered the room,Sensible,edin_semantics,emo_sem_emo_sem,1.60848887165776,1,1,1,1,340858.012666822,58,B
66,1,3/7/87,28,F,168,The blanket stroked Ryan,Non-sensible,edin_semantics,emo_sem_emo_sem,2.26741411449621,2,1,1,1,340861.023513561,116,B
66,1,3/7/87,28,F,169,Joe wore the jumper,Sensible,edin_semantics,emo_sem_emo_sem,0.997088507050648,2,2,2,1,340862.764162659,25,B
66,1,3/7/87,28,F,170,The crate lifted Amy,Non-sensible,edin_semantics,emo_sem_emo_sem,1.39725810365053,2,1,1,1,340864.904666407,144,B
66,1,3/7/87,28,F,171,Phil sniffed the milk,Sensible,edin_semantics,emo_sem_emo_sem,0.89131773437839,1,1,1,1,340866.539440498,18,B
66,1,3/7/87,28,F,172,The trousers ironed Eve,Non-sensible,edin_semantics,emo_sem_emo_sem,1.35717809048947,2,1,1,1,340868.632945348,130,B
66,1,3/7/87,28,F,173,Rob stroked the fur,Sensible,edin_semantics,emo_sem_emo_sem,1.02058025880251,1,2,2,1,340870.397129174,41,B
66,1,3/7/87,28,F,174,Max kissed the mirror,Sensible,edin_semantics,emo_sem_emo_sem,1.29098764975788,1,2,2,1,340872.43177331,23,B
66,1,3/7/87,28,F,175,The rope pulled Andy,Non-sensible,edin_semantics,emo_sem_emo_sem,0.937813744007144,2,1,1,1,340874.113597936,148,B
66,1,3/7/87,28,F,176,The hospital visited Tom,Non-sensible,edin_semantics,emo_sem_emo_sem,0.784759594942443,1,2,2,1,340875.642556033,91,B
66,1,3/7/87,28,F,177,Mike paid the bill,Sensible,edin_semantics,emo_sem_emo_sem,1.12644949241076,2,2,2,1,340877.512558419,59,B
66,1,3/7/87,28,F,178,The ice crushed Josh,Non-sensible,edin_semantics,emo_sem_emo_sem,0.973553137446288,1,2,2,1,340879.229703899,81,B
66,1,3/7/87,28,F,179,The hair trimmed Bill,Non-sensible,edin_semantics,emo_sem_emo_sem,0.938065829628613,1,2,2,1,340880.911526279,107,B
66,1,3/7/87,28,F,180,The internet searched Max,Non-sensible,edin_semantics,emo_sem_emo_sem,0.961550525506027,1,2,2,1,340882.616891406,85,B
66,1,3/7/87,28,F,181,The beer drank Jack,Non-sensible,edin_semantics,emo_sem_emo_sem,0.973139729874674,1,2,2,1,340884.333982042,135,B
66,1,3/7/87,28,F,182,The report filed Ian,Non-sensible,edin_semantics,emo_sem_emo_sem,0.949689030239824,1,2,2,1,340886.027599208,99,B
66,1,3/7/87,28,F,183,The cream whisked Tom,Non-sensible,edin_semantics,emo_sem_emo_sem,0.926178676716518,1,2,2,1,340887.697676514,137,B
66,1,3/7/87,28,F,184,Lara filed the papers,Sensible,edin_semantics,emo_sem_emo_sem,0.914712628815323,2,1,1,1,340889.35601452,24,B
66,1,3/7/87,28,F,185,Mary visited the museum,Sensible,edin_semantics,emo_sem_emo_sem,0.949931173585355,2,1,1,1,340891.049599934,16,B
66,1,3/7/87,28,F,186,The poster read Luke,Non-sensible,edin_semantics,emo_sem_emo_sem,0.949927004228812,2,2,2,1,340892.743196895,79,B
66,1,3/7/87,28,F,187,Matt pushed the trolley,Sensible,edin_semantics,emo_sem_emo_sem,0.914745983609464,1,1,1,1,340894.40148134,26,B
66,1,3/7/87,28,F,188,The rope pulled Emma,Non-sensible,edin_semantics,emo_sem_emo_sem,1.27938048512442,2,1,1,1,340896.42437944,120,B
66,1,3/7/87,28,F,189,The dress wore Kate,Non-sensible,edin_semantics,emo_sem_emo_sem,1.05547712178668,2,1,1,1,340898.223848841,100,B
66,1,3/7/87,28,F,190,Jane punched the wall,Sensible,edin_semantics,emo_sem_emo_sem,0.879336931335274,1,1,1,1,340899.846898384,50,B
66,1,3/7/87,28,F,191,The plants watered Luke,Non-sensible,edin_semantics,emo_sem_emo_sem,1.02080861118156,1,2,2,1,340901.611054308,129,B
66,1,3/7/87,28,F,192,Kate served the dish,Sensible,edin_semantics,emo_sem_emo_sem,1.02038910984993,2,1,1,1,340903.375231078,70,B
66,1,3/7/87,28,F,193,The debt paid Zoe,Non-sensible,edin_semantics,emo_sem_emo_sem,1.03210948855849,2,1,1,1,340905.151118285,134,B
66,1,3/7/87,28,F,194,The rules taught Josh,Non-sensible,edin_semantics,emo_sem_emo_sem,1.05590881046373,1,1,1,1,340906.95058897,90,B
66,1,3/7/87,28,F,195,Jen fixed the laptop,Sensible,edin_semantics,emo_sem_emo_sem,1.11461686185794,2,2,2,1,340908.808834736,37,B
66,1,3/7/87,28,F,196,The desk wiped Lucy,Non-sensible,edin_semantics,emo_sem_emo_sem,1.05580906657269,1,2,2,1,340910.60828778,115,B
66,1,3/7/87,28,F,197,Mark washed the dishes,Sensible,edin_semantics,emo_sem_emo_sem,1.22035716619575,2,2,2,1,340912.572395404,57,B
66,1,3/7/87,28,F,198,The fat chewed Adam,Non-sensible,edin_semantics,emo_sem_emo_sem,0.714679787051864,1,1,1,1,340914.030763107,106,B
66,1,3/7/87,28,F,199,Hugh pulled the lever,Sensible,edin_semantics,emo_sem_emo_sem,0.891129792667925,1,2,2,1,340915.665552914,45,B
66,1,3/7/87,28,F,200,The carrots grated Tom,Non-sensible,edin_semantics,emo_sem_emo_sem,0.950153111538384,1,1,1,1,340917.359137687,140,B
66,1,3/7/87,28,F,201,The kettle carried John,Non-sensible,edin_semantics,emo_sem_emo_sem,0.950374728883617,1,2,2,1,340919.052769286,105,B
66,1,3/7/87,28,F,202,Ryan painted the picture,Sensible,edin_semantics,emo_sem_emo_sem,0.726256162626669,1,2,2,1,340920.522892968,35,B
66,1,3/7/87,28,F,203,The wallet carried Leo,Non-sensible,edin_semantics,emo_sem_emo_sem,1.26771751529304,2,1,1,1,340922.534006225,150,B
66,1,3/7/87,28,F,204,The bowl dented Ian,Non-sensible,edin_semantics,emo_sem_emo_sem,0.89064871321898,1,1,1,1,340924.168895454,146,B
66,1,3/7/87,28,F,205,The radio fixed Luke,Non-sensible,edin_semantics,emo_sem_emo_sem,1.47924943902763,2,1,1,1,340926.391665074,112,B
66,1,3/7/87,28,F,206,The pot scrubbed Josh,Non-sensible,edin_semantics,emo_sem_emo_sem,0.937524134176783,1,2,2,1,340928.073504132,131,B
66,1,3/7/87,28,F,207,Mary iced the cake,Sensible,edin_semantics,emo_sem_emo_sem,0.808042237535119,1,1,1,1,340929.625986053,44,B
66,1,3/7/87,28,F,208,Jon trimmed the bushes,Sensible,edin_semantics,emo_sem_emo_sem,1.3370234266622,1,1,1,1,340931.707685533,32,B
66,1,3/7/87,28,F,209,Tim ate the ham,Sensible,edin_semantics,emo_sem_emo_sem,0.996694663364906,1,2,2,1,340933.448329179,67,B
66,1,3/7/87,28,F,210,The sweets offered Tom,Non-sensible,edin_semantics,emo_sem_emo_sem,1.06765131873544,2,1,1,1,340935.259553917,84,B
66,1,3/7/87,28,F,211,The house dusted Alex,Non-sensible,edin_semantics,emo_sem_emo_sem,0.996831289958209,1,1,1,1,340937.000189545,122,B
66,1,3/7/87,28,F,212,The onion sliced Liam,Non-sensible,edin_semantics,emo_sem_emo_sem,0.844120310910512,1,1,1,1,340938.587968587,78,B
66,1,3/7/87,28,F,213,Jen searched the room,Sensible,edin_semantics,emo_sem_emo_sem,1.30234208732145,2,1,1,1,340940.634388907,10,B
66,1,3/7/87,28,F,214,The trophy polished Anna,Non-sensible,edin_semantics,emo_sem_emo_sem,0.844069316459354,1,1,1,1,340942.222098674,104,B
66,1,3/7/87,28,F,215,The ticket took Tim,Non-sensible,edin_semantics,emo_sem_emo_sem,1.07919305656105,2,1,1,1,340944.045068486,128,B
66,1,3/7/87,28,F,216,The turnip mashed Ella,Non-sensible,edin_semantics,emo_sem_emo_sem,0.997117692546453,1,2,2,1,340945.785750298,103,B
66,1,3/7/87,28,F,217,Rob mailed the parcel,Sensible,edin_semantics,emo_sem_emo_sem,1.0320719643496,2,1,1,1,340947.561617299,14,B
66,1,3/7/87,28,F,218,The monitor punched Erin,Non-sensible,edin_semantics,emo_sem_emo_sem,1.20874968089629,2,2,2,1,340949.513981773,125,B
66,1,3/7/87,28,F,219,Erin posted the card,Sensible,edin_semantics,emo_sem_emo_sem,0.808454682992306,1,1,1,1,340951.066438357,36,B
66,1,3/7/87,28,F,220,Phil passed the towels,Sensible,edin_semantics,emo_sem_emo_sem,1.14950955548557,2,2,2,1,340952.960002733,43,B
66,1,3/7/87,28,F,221,Jen weighed the flour,Sensible,edin_semantics,emo_sem_emo_sem,0.749513147573452,1,1,1,1,340954.453660502,64,B
66,1,3/7/87,28,F,222,Erin crushed the garlic,Sensible,edin_semantics,emo_sem_emo_sem,1.27709054684965,2,1,1,1,340956.476553149,6,B
66,1,3/7/87,28,F,223,The socks knitted Ryan,Non-sensible,edin_semantics,emo_sem_emo_sem,1.12613486644113,1,2,2,1,340958.346568043,141,B
66,1,3/7/87,28,F,224,The bed sold Jay,Non-sensible,edin_semantics,emo_sem_emo_sem,1.20845461881254,2,2,2,1,340960.298892427,113,B
66,1,3/7/87,28,F,225,Leah sucked the lolly,Sensible,edin_semantics,emo_sem_emo_sem,1.14939858647995,1,1,1,1,340962.192453274,12,B
66,1,3/7/87,28,F,226,The hotline dialed Hugh,Non-sensible,edin_semantics,emo_sem_emo_sem,1.54938409000169,1,1,1,1,340964.485857226,138,B
66,1,3/7/87,28,F,227,Lily got the kettle,Sensible,edin_semantics,emo_sem_emo_sem,1.53785389813129,2,2,2,1,340966.767520593,13,B
66,1,3/7/87,28,F,228,Matt offered the money,Sensible,edin_semantics,emo_sem_emo_sem,1.07923475006828,1,2,2,1,340968.590494255,9,B
66,1,3/7/87,28,F,229,The radio got Ben,Non-sensible,edin_semantics,emo_sem_emo_sem,0.879215378663503,1,1,1,1,340970.21352231,88,B
66,1,3/7/87,28,F,230,Liz scrubbed the bowl,Sensible,edin_semantics,emo_sem_emo_sem,0.891227932879701,1,1,1,1,340971.848298967,56,B
66,1,3/7/87,28,F,231,Eve taught the lesson,Sensible,edin_semantics,emo_sem_emo_sem,1.15012309222948,1,2,2,1,340973.741836402,15,B
66,1,3/7/87,28,F,232,Tim cleaned the floor,Sensible,edin_semantics,emo_sem_emo_sem,1.13817051250953,1,2,2,1,340975.623629725,5,B
66,1,3/7/87,28,F,233,Bill counted the sheets,Sensible,edin_semantics,emo_sem_emo_sem,0.843709469074383,1,1,1,1,340977.211360339,48,B
66,1,3/7/87,28,F,234,Andy grated the cheese,Sensible,edin_semantics,emo_sem_emo_sem,0.890957886935212,1,2,2,1,340978.846146618,65,B
66,1,3/7/87,28,F,235,Dan whisked the eggs,Sensible,edin_semantics,emo_sem_emo_sem,1.6085745037999,2,1,1,1,340981.198373438,62,B
66,1,3/7/87,28,F,236,The gum swallowed Owen,Non-sensible,edin_semantics,emo_sem_emo_sem,0.867548560141586,2,2,2,1,340982.809643591,97,B
66,1,3/7/87,28,F,237,Jake dusted the shelf,Sensible,edin_semantics,emo_sem_emo_sem,1.20856622920837,2,2,2,1,340984.76199716,47,B
66,1,3/7/87,28,F,238,The door kicked Max,Non-sensible,edin_semantics,emo_sem_emo_sem,0.8436751520494,1,1,1,1,340986.349728094,114,B
66,1,3/7/87,28,F,239,The shed built Rose,Non-sensible,edin_semantics,emo_sem_emo_sem,0.950260552635882,1,2,2,1,340988.043341091,121,B
66,1,3/7/87,28,F,240,Leo stored the wine,Sensible,edin_semantics,emo_sem_emo_sem,0.902755559014622,1,1,1,1,340989.689883027,52,B
66,1,3/7/87,28,F,241,Sean read the book,Sensible,edin_semantics,emo_sem_emo_sem,0.973506633134093,2,1,1,1,340991.406991945,4,B
66,1,3/7/87,28,F,242,Kate lifted the box,Sensible,edin_semantics,emo_sem_emo_sem,0.820699117495678,2,2,2,1,340992.971225354,69,B
66,1,3/7/87,28,F,243,Liz labeled the jar,Sensible,edin_semantics,emo_sem_emo_sem,1.93782657280099,2,2,2,1,340995.652782179,61,B
66,1,3/7/87,28,F,244,The message typed Eve,Non-sensible,edin_semantics,emo_sem_emo_sem,0.890658014046494,1,1,1,1,340997.287568458,124,B
66,1,3/7/87,28,F,245,The lemon squeezed Jay,Non-sensible,edin_semantics,emo_sem_emo_sem,1.3962600241066,2,1,1,1,340999.428079261,76,B
66,1,3/7/87,28,F,246,Josh ironed the shirt,Sensible,edin_semantics,emo_sem_emo_sem,1.20875032228651,1,2,1,0,341001.380429944,55,B
66,1,3/7/87,28,F,247,Ben chewed the toffee,Sensible,edin_semantics,emo_sem_emo_sem,1.54967081331415,2,2,2,1,341003.673814332,31,B
66,1,3/7/87,28,F,248,The curtains measured Rob,Non-sensible,edin_semantics,emo_sem_emo_sem,0.844119028071873,1,1,1,1,341005.261643727,126,B
66,1,3/7/87,28,F,249,Jon jumped the fence,Sensible,edin_semantics,emo_sem_emo_sem,0.914454449492041,2,2,2,1,341006.919905401,17,B
66,1,3/7/87,28,F,250,Matt drank the juice,Sensible,edin_semantics,emo_sem_emo_sem,0.984567291452549,2,1,1,1,341008.648768693,60,B
66,1,3/7/87,28,F,251,The nuts mixed Liam,Non-sensible,edin_semantics,emo_sem_emo_sem,1.34953919000691,2,2,2,1,341010.742301125,83,B
66,1,3/7/87,28,F,252,Jon cut the paper,Sensible,edin_semantics,emo_sem_emo_sem,0.58542945003137,1,1,1,1,341012.071233116,20,B
66,1,3/7/87,28,F,253,The hedge jumped Sara,Non-sensible,edin_semantics,emo_sem_emo_sem,1.70189846784342,2,1,1,1,341014.517546572,92,B
66,1,3/7/87,28,F,254,Will licked the spoon,Sensible,edin_semantics,emo_sem_emo_sem,1.11300781142199,2,2,2,1,341016.375804846,21,B
66,1,3/7/87,28,F,255,The pan washed Beth,Non-sensible,edin_semantics,emo_sem_emo_sem,0.795945654681418,1,1,1,1,341017.916487171,132,B
66,1,3/7/87,28,F,256,The pillow hugged Kate,Non-sensible,edin_semantics,emo_sem_emo_sem,1.53763003577478,2,1,1,1,341020.198203778,86,B
66,1,3/7/87,28,F,257,The sugar weighed Liz,Non-sensible,edin_semantics,emo_sem_emo_sem,0.878546998894308,1,2,2,1,341021.821205213,139,B
66,1,3/7/87,28,F,258,The opera watched Adam,Non-sensible,edin_semantics,emo_sem_emo_sem,1.12588502588915,2,1,1,1,341023.691217542,108,B
66,1,3/7/87,28,F,259,The rose kissed Hugh,Non-sensible,edin_semantics,emo_sem_emo_sem,0.721653835731559,1,1,1,1,341025.149606092,98,B
66,1,3/7/87,28,F,260,Luke swallowed the pill,Sensible,edin_semantics,emo_sem_emo_sem,1.36065661575412,2,1,1,1,341027.254887126,22,B
66,1,3/7/87,28,F,261,Joe solved the puzzle,Sensible,edin_semantics,emo_sem_emo_sem,1.12578143342398,2,1,1,1,341029.124850705,34,B
66,1,3/7/87,28,F,262,The dessert served Fred,Non-sensible,edin_semantics,emo_sem_emo_sem,0.854989178886171,1,2,2,1,341030.724351409,145,B
66,1,3/7/87,28,F,263,The plate licked Jane,Non-sensible,edin_semantics,emo_sem_emo_sem,0.761486574076116,1,1,1,1,341032.229780872,96,B
66,1,3/7/87,28,F,264,Ryan carried the gun,Sensible,edin_semantics,emo_sem_emo_sem,0.87792255776003,2,2,2,1,341033.852823038,75,B
66,1,3/7/87,28,F,265,Ella watched the movie,Sensible,edin_semantics,emo_sem_emo_sem,1.08963087736629,2,2,2,1,341035.687544019,33,B
66,1,3/7/87,28,F,266,The church described Erin,Non-sensible,edin_semantics,emo_sem_emo_sem,0.900928098475561,2,2,2,1,341037.334103916,117,B
66,1,3/7/87,28,F,267,Sam tidied the room,Sensible,edin_semantics,emo_sem_emo_sem,0.99626457830891,1,1,1,1,341039.074756542,2,B
66,1,3/7/87,28,F,268,The box labeled Ian,Non-sensible,edin_semantics,emo_sem_emo_sem,0.843380410689861,2,1,1,1,341040.662516982,136,B
66,1,3/7/87,28,F,269,Carl brushed the teeth,Sensible,edin_semantics,emo_sem_emo_sem,0.66717992501799,2,1,1,1,341042.073839925,72,B
66,1,3/7/87,28,F,270,The carrots chopped Fred,Non-sensible,edin_semantics,emo_sem_emo_sem,0.913795049884357,2,1,1,1,341043.732105127,102,B
66,1,3/7/87,28,F,271,Max lent the bucket,Sensible,edin_semantics,emo_sem_emo_sem,0.878800046688411,1,2,2,1,341045.355157557,19,B
66,1,3/7/87,28,F,272,Amy measured the thread,Sensible,edin_semantics,emo_sem_emo_sem,1.05530008452479,2,2,2,1,341047.154649729,51,B
66,1,3/7/87,28,F,273,The gift posted Jack,Non-sensible,edin_semantics,emo_sem_emo_sem,1.06704227213049,2,2,2,1,341048.965809362,111,B
66,1,3/7/87,28,F,274,Phil chopped the herbs,Sensible,edin_semantics,emo_sem_emo_sem,0.996152005740441,2,2,2,1,341050.706493739,27,B
66,1,3/7/87,28,F,275,The steak ate Mike,Non-sensible,edin_semantics,emo_sem_emo_sem,1.06715837260708,2,1,1,1,341052.517686405,142,B
66,1,3/7/87,28,F,276,The candy sucked Sam,Non-sensible,edin_semantics,emo_sem_emo_sem,0.796148670255207,1,2,2,1,341054.058376427,87,B
66,1,3/7/87,28,F,277,The bath cleaned Jack,Non-sensible,edin_semantics,emo_sem_emo_sem,2.32532261189772,2,1,1,1,341057.128005303,80,B
66,1,3/7/87,28,F,278,The ribbon cut Lucy,Non-sensible,edin_semantics,emo_sem_emo_sem,1.04323172505246,2,2,2,1,341058.915695635,95,B
66,1,3/7/87,28,F,279,The problem solved Phil,Non-sensible,edin_semantics,emo_sem_emo_sem,0.831118657253683,1,2,2,1,341060.491702662,109,B
66,1,3/7/87,28,F,280,The garage tidied Erin,Non-sensible,edin_semantics,emo_sem_emo_sem,1.16075494838879,1,2,2,1,341062.396982285,77,B
66,1,3/7/87,28,F,281,Beth took the photo,Sensible,edin_semantics,emo_sem_emo_sem,1.34904880967224,2,2,2,1,341064.490457949,53,B
66,1,3/7/87,28,F,282,Tom knitted the scarf,Sensible,edin_semantics,emo_sem_emo_sem,0.996065732149873,1,1,1,1,341066.231105123,66,B
66,1,3/7/87,28,F,283,Luke climbed the hill,Sensible,edin_semantics,emo_sem_emo_sem,1.2195444626268,2,1,1,1,341068.1952012,68,B
66,1,3/7/87,28,F,284,Dan carried the folder,Sensible,edin_semantics,emo_sem_emo_sem,1.00828450912377,1,1,1,1,341069.947626482,30,B
66,1,3/7/87,28,F,285,John described the pen,Sensible,edin_semantics,emo_sem_emo_sem,1.31401724449825,2,1,1,1,341072.005821382,42,B
66,1,3/7/87,28,F,286,The invite mailed Ian,Non-sensible,edin_semantics,emo_sem_emo_sem,0.972453069116455,1,2,2,1,341073.722966862,89,B
66,1,3/7/87,28,F,287,Ian cancelled the plans,Sensible,edin_semantics,emo_sem_emo_sem,1.4314137835172,2,2,2,1,341075.898715774,7,B
66,1,3/7/87,28,F,288,The hair brushed Dan,Non-sensible,edin_semantics,emo_sem_emo_sem,1.12599503266392,2,2,2,1,341077.768731631,147,B
66,1,3/7/87,28,F,289,The party cancelled Phil,Non-sensible,edin_semantics,emo_sem_emo_sem,0.853812779241707,1,1,1,1,341079.368267614,82,B
66,1,3/7/87,28,F,290,Tim pulled the handle,Sensible,edin_semantics,emo_sem_emo_sem,1.31283924117452,2,2,2,1,341081.426434611,73,B
66,1,3/7/87,28,F,291,The stairs climbed Ben,Non-sensible,edin_semantics,emo_sem_emo_sem,1.32452434068546,2,2,2,1,341083.496379075,143,B
66,1,3/7/87,28,F,292,Jack mixed the fruits,Sensible,edin_semantics,emo_sem_emo_sem,1.20744403119897,2,1,1,1,341085.448763754,8,B
66,1,3/7/87,28,F,293,The perfume sniffed Tim,Non-sensible,edin_semantics,emo_sem_emo_sem,0.937711755163036,2,2,2,1,341087.130618527,93,B
66,1,3/7/87,28,F,294,The report wrote Alex,Non-sensible,edin_semantics,emo_sem_emo_sem,0.995939368614927,1,2,2,1,341088.871257683,149,B
66,1,3/7/87,28,F,295,Phil typed the letter,Sensible,edin_semantics,emo_sem_emo_sem,0.937432408332825,1,2,2,1,341090.553046067,49,B
66,1,3/7/87,28,F,296,Liz sliced the tomato,Sensible,edin_semantics,emo_sem_emo_sem,1.38425773283234,2,2,2,1,341092.681811476,3,B
66,1,3/7/87,28,F,297,The portrait painted Jay,Non-sensible,edin_semantics,emo_sem_emo_sem,1.26646510505816,2,1,1,1,341094.692973482,110,B
66,1,3/7/87,28,F,298,Lily dented the lorry,Sensible,edin_semantics,emo_sem_emo_sem,1.03163514420157,2,2,2,1,341096.468902061,71,B
66,1,3/7/87,28,F,299,Jeff watered the garden,Sensible,edin_semantics,emo_sem_emo_sem,1.11378940520808,1,1,1,1,341098.327126339,54,B
66,1,3/7/87,28,F,300,The donut iced Joe,Non-sensible,edin_semantics,emo_sem_emo_sem,1.09066583967069,2,2,2,1,341100.161875864,119,B
