subject_column,AssignedList_column,subject_dob_column,subject_age_column,subject_gender_column,trialnum_column,Stim_column,Type_column,Experiment_column,OrderGroup_column,ReactionTime_column,StimSide_column,StimPosition_column,Response_column,Valid_column,TrialEndSecs_column,PairID_column,List_column
67,3,5/5/94,22,F,1,Kate lifted the box,Sensible,edin_semantics,emo_sem_emo_sem,1.46196136740036,2,2,2,1,357618.529433725,69,B
67,3,5/5/94,22,F,2,The sugar weighed Liz,Non-sensible,edin_semantics,emo_sem_emo_sem,1.0440931780613,2,2,2,1,357620.317133357,139,B
67,3,5/5/94,22,F,3,The ribbon cut Lucy,Non-sensible,edin_semantics,emo_sem_emo_sem,0.844240580801852,2,2,2,1,357621.904910795,95,B
67,3,5/5/94,22,F,4,The hair brushed Dan,Non-sensible,edin_semantics,emo_sem_emo_sem,0.903723170224112,1,2,2,1,357623.5514476,147,B
67,3,5/5/94,22,F,5,Leah sucked the lolly,Sensible,edin_semantics,emo_sem_emo_sem,0.90366800641641,2,1,1,1,357625.197994989,12,B
67,3,5/5/94,22,F,6,Will licked the spoon,Sensible,edin_semantics,emo_sem_emo_sem,0.867859016812872,2,2,2,1,357626.809270273,21,B
67,3,5/5/94,22,F,7,The gift posted Jack,Non-sensible,edin_semantics,emo_sem_emo_sem,1.15054195205448,1,2,2,1,357628.702791031,111,B
67,3,5/5/94,22,F,8,The shoes counted Lucy,Non-sensible,edin_semantics,emo_sem_emo_sem,0.86819352733437,2,2,2,1,357630.314098707,123,B
67,3,5/5/94,22,F,9,Matt offered the money,Sensible,edin_semantics,emo_sem_emo_sem,1.07996214227751,1,2,2,1,357632.137029071,9,B
67,3,5/5/94,22,F,10,Carl sold the sofa,Sensible,edin_semantics,emo_sem_emo_sem,1.10333971778164,2,1,1,1,357633.983524632,38,B
67,3,5/5/94,22,F,11,Tom dialed the number,Sensible,edin_semantics,emo_sem_emo_sem,1.10309885733295,1,2,2,1,357635.830030135,63,B
67,3,5/5/94,22,F,12,The kettle carried John,Non-sensible,edin_semantics,emo_sem_emo_sem,0.927141797845252,1,2,2,1,357637.500108403,105,B
67,3,5/5/94,22,F,13,The hotline dialed Hugh,Non-sensible,edin_semantics,emo_sem_emo_sem,0.903847930137999,1,1,1,1,357639.146663489,138,B
67,3,5/5/94,22,F,14,The hair trimmed Bill,Non-sensible,edin_semantics,emo_sem_emo_sem,1.3030037318822,1,2,2,1,357641.193059114,107,B
67,3,5/5/94,22,F,15,The nuts mixed Liam,Non-sensible,edin_semantics,emo_sem_emo_sem,0.903183719783556,2,2,2,1,357642.839610993,83,B
67,3,5/5/94,22,F,16,The plate licked Jane,Non-sensible,edin_semantics,emo_sem_emo_sem,0.762405756511725,1,1,1,1,357644.345063868,96,B
67,3,5/5/94,22,F,17,The office entered Joe,Non-sensible,edin_semantics,emo_sem_emo_sem,0.774202466418501,2,2,2,1,357645.862260214,133,B
67,3,5/5/94,22,F,18,Amy hugged the tree,Sensible,edin_semantics,emo_sem_emo_sem,0.762642447662074,1,2,2,1,357647.36768647,11,B
67,3,5/5/94,22,F,19,Kate served the dish,Sensible,edin_semantics,emo_sem_emo_sem,0.633053751313128,2,1,1,1,357648.743714536,70,B
67,3,5/5/94,22,F,20,Rob mailed the parcel,Sensible,edin_semantics,emo_sem_emo_sem,1.02097602683352,2,1,1,1,357650.507879119,14,B
67,3,5/5/94,22,F,21,John described the pen,Sensible,edin_semantics,emo_sem_emo_sem,1.29145718325162,2,1,1,1,357652.54252069,42,B
67,3,5/5/94,22,F,22,Ryan entered the room,Sensible,edin_semantics,emo_sem_emo_sem,0.856759872112889,2,1,1,1,357654.14205539,58,B
67,3,5/5/94,22,F,23,Ryan painted the picture,Sensible,edin_semantics,emo_sem_emo_sem,0.821044211857952,2,2,2,1,357655.706269877,35,B
67,3,5/5/94,22,F,24,Luke swallowed the pill,Sensible,edin_semantics,emo_sem_emo_sem,0.762406077235937,2,1,1,1,357657.211685548,22,B
67,3,5/5/94,22,F,25,The dessert served Fred,Non-sensible,edin_semantics,emo_sem_emo_sem,0.726593238941859,2,2,2,1,357658.681823984,145,B
67,3,5/5/94,22,F,26,Matt drank the juice,Sensible,edin_semantics,emo_sem_emo_sem,0.798041557543911,2,1,1,1,357660.222715418,60,B
67,3,5/5/94,22,F,27,The problem solved Phil,Non-sensible,edin_semantics,emo_sem_emo_sem,0.879499215516262,1,2,2,1,357661.84557702,109,B
67,3,5/5/94,22,F,28,The door kicked Max,Non-sensible,edin_semantics,emo_sem_emo_sem,0.856830751115922,2,1,1,1,357663.445085741,114,B
67,3,5/5/94,22,F,29,Sam tidied the room,Sensible,edin_semantics,emo_sem_emo_sem,1.33864530589199,2,1,1,1,357665.526783618,2,B
67,3,5/5/94,22,F,30,The carrots chopped Fred,Non-sensible,edin_semantics,emo_sem_emo_sem,0.84473448904464,2,1,1,1,357667.114546945,102,B
67,3,5/5/94,22,F,31,Tim cleaned the floor,Sensible,edin_semantics,emo_sem_emo_sem,0.950487942842301,2,2,2,1,357668.80812819,5,B
67,3,5/5/94,22,F,32,Rob stroked the fur,Sensible,edin_semantics,emo_sem_emo_sem,1.29148316156352,1,2,2,1,357670.842806002,41,B
67,3,5/5/94,22,F,33,The crate lifted Amy,Non-sensible,edin_semantics,emo_sem_emo_sem,0.903601296711713,2,1,1,1,357672.489398291,144,B
67,3,5/5/94,22,F,34,The carrots grated Tom,Non-sensible,edin_semantics,emo_sem_emo_sem,0.974099643703084,2,1,1,1,357674.206491173,140,B
67,3,5/5/94,22,F,35,Tim ate the ham,Sensible,edin_semantics,emo_sem_emo_sem,1.44422813691199,2,2,2,1,357676.394033588,67,B
67,3,5/5/94,22,F,36,Josh ironed the shirt,Sensible,edin_semantics,emo_sem_emo_sem,1.47986650367966,1,2,2,1,357678.616900706,55,B
67,3,5/5/94,22,F,37,The report wrote Alex,Non-sensible,edin_semantics,emo_sem_emo_sem,0.950191597919911,1,2,2,1,357680.310479386,149,B
67,3,5/5/94,22,F,38,Jake dusted the shelf,Sensible,edin_semantics,emo_sem_emo_sem,1.15015131555265,2,2,2,1,357682.204050497,47,B
67,3,5/5/94,22,F,39,The blanket stroked Ryan,Non-sensible,edin_semantics,emo_sem_emo_sem,0.726643912668806,1,1,1,1,357683.674177707,116,B
67,3,5/5/94,22,F,40,Liz sliced the tomato,Sensible,edin_semantics,emo_sem_emo_sem,1.55007716518594,1,2,2,1,357685.967585186,3,B
67,3,5/5/94,22,F,41,Ryan carried the gun,Sensible,edin_semantics,emo_sem_emo_sem,1.1504175128066,2,2,2,1,357687.861137695,75,B
67,3,5/5/94,22,F,42,The turnip mashed Ella,Non-sensible,edin_semantics,emo_sem_emo_sem,1.29154538118746,2,2,2,1,357689.895807489,103,B
67,3,5/5/94,22,F,43,The dress wore Kate,Non-sensible,edin_semantics,emo_sem_emo_sem,0.950432779092807,1,1,1,1,357691.589384565,100,B
67,3,5/5/94,22,F,44,The salt passed Leo,Non-sensible,edin_semantics,emo_sem_emo_sem,0.962547322211321,1,1,1,1,357693.294786895,118,B
67,3,5/5/94,22,F,45,The radio got Ben,Non-sensible,edin_semantics,emo_sem_emo_sem,1.13855730043724,1,1,2,0,357695.176521205,88,B
67,3,5/5/94,22,F,46,The curtains measured Rob,Non-sensible,edin_semantics,emo_sem_emo_sem,0.939055891125463,2,1,1,1,357696.858369885,126,B
67,3,5/5/94,22,F,47,Jon polished the coins,Sensible,edin_semantics,emo_sem_emo_sem,1.2212481253664,2,2,2,1,357698.822473339,29,B
67,3,5/5/94,22,F,48,Max lent the bucket,Sensible,edin_semantics,emo_sem_emo_sem,1.23265740601346,1,2,2,1,357700.798321867,19,B
67,3,5/5/94,22,F,49,The message typed Eve,Non-sensible,edin_semantics,emo_sem_emo_sem,1.23261859890772,1,1,1,1,357702.77418162,124,B
67,3,5/5/94,22,F,50,Jane punched the wall,Sensible,edin_semantics,emo_sem_emo_sem,0.973997013468761,2,1,1,1,357704.491290537,50,B
67,3,5/5/94,22,F,51,The pillow hugged Kate,Non-sensible,edin_semantics,emo_sem_emo_sem,1.06823278346565,1,1,1,1,357706.302506937,86,B
67,3,5/5/94,22,F,52,Phil passed the towels,Sensible,edin_semantics,emo_sem_emo_sem,1.10304465575609,1,2,2,1,357708.149010837,43,B
67,3,5/5/94,22,F,53,Ewan wrote the story,Sensible,edin_semantics,emo_sem_emo_sem,1.02065370359924,1,1,1,1,357709.913162911,74,B
67,3,5/5/94,22,F,54,The wallet carried Leo,Non-sensible,edin_semantics,emo_sem_emo_sem,0.903149402758572,2,1,1,1,357711.559712225,150,B
67,3,5/5/94,22,F,55,Mary visited the museum,Sensible,edin_semantics,emo_sem_emo_sem,0.903675062232651,2,1,1,1,357713.206312212,16,B
67,3,5/5/94,22,F,56,Jen weighed the flour,Sensible,edin_semantics,emo_sem_emo_sem,0.938917019520886,1,1,1,1,357714.88812914,64,B
67,3,5/5/94,22,F,57,The pot scrubbed Josh,Non-sensible,edin_semantics,emo_sem_emo_sem,1.25620175572112,2,2,2,1,357716.887516244,131,B
67,3,5/5/94,22,F,58,The rose kissed Hugh,Non-sensible,edin_semantics,emo_sem_emo_sem,1.04430164583027,2,1,1,1,357718.67522197,98,B
67,3,5/5/94,22,F,59,The steak ate Mike,Non-sensible,edin_semantics,emo_sem_emo_sem,1.10346896783449,1,1,1,1,357720.521680648,142,B
67,3,5/5/94,22,F,60,The stairs climbed Ben,Non-sensible,edin_semantics,emo_sem_emo_sem,1.56219651905121,1,2,2,1,357722.826856293,143,B
67,3,5/5/94,22,F,61,The ticket took Tim,Non-sensible,edin_semantics,emo_sem_emo_sem,0.903437409026083,1,1,1,1,357724.473405606,128,B
67,3,5/5/94,22,F,62,Dan carried the folder,Sensible,edin_semantics,emo_sem_emo_sem,0.715425781032536,2,1,1,1,357725.93178229,30,B
67,3,5/5/94,22,F,63,Matt pushed the trolley,Sensible,edin_semantics,emo_sem_emo_sem,0.809366168221459,2,1,1,1,357727.484250741,26,B
67,3,5/5/94,22,F,64,The rope pulled Emma,Non-sensible,edin_semantics,emo_sem_emo_sem,0.821169933944475,2,1,1,1,357729.048499224,120,B
67,3,5/5/94,22,F,65,Eve taught the lesson,Sensible,edin_semantics,emo_sem_emo_sem,1.03247927827761,2,2,2,1,357730.824388356,15,B
67,3,5/5/94,22,F,66,The bowl dented Ian,Non-sensible,edin_semantics,emo_sem_emo_sem,0.927209148998372,1,1,1,1,357732.494472718,146,B
67,3,5/5/94,22,F,67,Leo stored the wine,Sensible,edin_semantics,emo_sem_emo_sem,1.2209514597198,2,1,1,1,357734.458563984,52,B
67,3,5/5/94,22,F,68,Ella watched the movie,Sensible,edin_semantics,emo_sem_emo_sem,1.38580745016225,1,2,2,1,357736.587343184,33,B
67,3,5/5/94,22,F,69,Sean read the book,Sensible,edin_semantics,emo_sem_emo_sem,1.05640528444201,1,1,1,1,357738.386840488,4,B
67,3,5/5/94,22,F,70,The house dusted Alex,Non-sensible,edin_semantics,emo_sem_emo_sem,1.31503713293932,2,1,1,1,357740.444982469,122,B
67,3,5/5/94,22,F,71,Matt kicked the bike,Sensible,edin_semantics,emo_sem_emo_sem,0.903558640973642,1,2,2,1,357742.091532103,39,B
67,3,5/5/94,22,F,72,The pan washed Beth,Non-sensible,edin_semantics,emo_sem_emo_sem,0.99754296685569,1,1,1,1,357743.832201728,132,B
67,3,5/5/94,22,F,73,The invite mailed Ian,Non-sensible,edin_semantics,emo_sem_emo_sem,1.09147341165226,1,2,2,1,357745.666911483,89,B
67,3,5/5/94,22,F,74,The car lent Fred,Non-sensible,edin_semantics,emo_sem_emo_sem,0.797349444590509,1,1,1,1,357747.207620748,94,B
67,3,5/5/94,22,F,75,Max kissed the mirror,Sensible,edin_semantics,emo_sem_emo_sem,1.35032174590742,1,2,2,1,357749.301073641,23,B
67,3,5/5/94,22,F,76,The candy sucked Sam,Non-sensible,edin_semantics,emo_sem_emo_sem,0.985649078793358,2,2,2,1,357751.029950083,87,B
67,3,5/5/94,22,F,77,The bed sold Jay,Non-sensible,edin_semantics,emo_sem_emo_sem,0.797606982465368,1,2,2,1,357752.570629521,113,B
67,3,5/5/94,22,F,78,Ian cancelled the plans,Sensible,edin_semantics,emo_sem_emo_sem,0.774169111566152,1,2,2,1,357754.087829716,7,B
67,3,5/5/94,22,F,79,The internet searched Max,Non-sensible,edin_semantics,emo_sem_emo_sem,1.29195910954149,2,2,2,1,357756.122530619,85,B
67,3,5/5/94,22,F,80,Liz scrubbed the bowl,Sensible,edin_semantics,emo_sem_emo_sem,0.938342931389343,1,1,1,1,357757.804343378,56,B
67,3,5/5/94,22,F,81,Beth took the photo,Sensible,edin_semantics,emo_sem_emo_sem,1.40896372916177,2,2,2,1,357759.956664041,53,B
67,3,5/5/94,22,F,82,The fat chewed Adam,Non-sensible,edin_semantics,emo_sem_emo_sem,0.926857319544069,1,1,1,1,357761.626660526,106,B
67,3,5/5/94,22,F,83,The box labeled Ian,Non-sensible,edin_semantics,emo_sem_emo_sem,0.891557953436859,1,1,1,1,357763.26148465,136,B
67,3,5/5/94,22,F,84,Kate built the house,Sensible,edin_semantics,emo_sem_emo_sem,0.856360576115549,1,1,1,1,357764.861030896,46,B
67,3,5/5/94,22,F,85,Tom knitted the scarf,Sensible,edin_semantics,emo_sem_emo_sem,0.915249834186397,1,1,1,1,357766.519318227,66,B
67,3,5/5/94,22,F,86,Liz labeled the jar,Sensible,edin_semantics,emo_sem_emo_sem,1.09187976352405,1,2,2,1,357768.354089881,61,B
67,3,5/5/94,22,F,87,The sweets offered Tom,Non-sensible,edin_semantics,emo_sem_emo_sem,0.762471183319576,1,1,1,1,357769.859515816,84,B
67,3,5/5/94,22,F,88,Mary iced the cake,Sensible,edin_semantics,emo_sem_emo_sem,0.974094832956325,2,1,1,1,357771.576575664,44,B
67,3,5/5/94,22,F,89,Ben chewed the toffee,Sensible,edin_semantics,emo_sem_emo_sem,0.797407815523911,1,2,2,1,357773.117315076,31,B
67,3,5/5/94,22,F,90,The onion sliced Liam,Non-sensible,edin_semantics,emo_sem_emo_sem,0.773967058281414,1,1,1,1,357774.634478067,78,B
67,3,5/5/94,22,F,91,The desk wiped Lucy,Non-sensible,edin_semantics,emo_sem_emo_sem,1.83290506573394,2,2,2,1,357777.210195806,115,B
67,3,5/5/94,22,F,92,The monitor punched Erin,Non-sensible,edin_semantics,emo_sem_emo_sem,0.99709235568298,2,2,2,1,357778.950823736,125,B
67,3,5/5/94,22,F,93,Andy grated the cheese,Sensible,edin_semantics,emo_sem_emo_sem,1.07965617568698,2,2,2,1,357780.773792587,65,B
67,3,5/5/94,22,F,94,The bath cleaned Jack,Non-sensible,edin_semantics,emo_sem_emo_sem,1.16196085419506,2,1,1,1,357782.679061305,80,B
67,3,5/5/94,22,F,95,Hugh pulled the lever,Sensible,edin_semantics,emo_sem_emo_sem,0.715341752395034,2,2,2,1,357784.137446648,45,B
67,3,5/5/94,22,F,96,Jon trimmed the bushes,Sensible,edin_semantics,emo_sem_emo_sem,0.938624523230828,2,1,1,1,357785.819277688,32,B
67,3,5/5/94,22,F,97,Jen fixed the laptop,Sensible,edin_semantics,emo_sem_emo_sem,0.879577150393743,2,2,2,1,357787.442305743,37,B
67,3,5/5/94,22,F,98,Josh squeezed the ball,Sensible,edin_semantics,emo_sem_emo_sem,0.785452349402476,2,2,2,1,357788.971246201,1,B
67,3,5/5/94,22,F,99,The rules taught Josh,Non-sensible,edin_semantics,emo_sem_emo_sem,0.879587092727888,1,1,1,1,357790.59428035,90,B
67,3,5/5/94,22,F,100,Erin crushed the garlic,Sensible,edin_semantics,emo_sem_emo_sem,0.927009340608492,1,1,1,1,357792.264362788,6,B
67,3,5/5/94,22,F,101,The poster read Luke,Non-sensible,edin_semantics,emo_sem_emo_sem,1.07990056404378,2,2,2,1,357794.087319451,79,B
67,3,5/5/94,22,F,102,The rice stored Fred,Non-sensible,edin_semantics,emo_sem_emo_sem,1.25632459140616,2,2,2,1,357796.086716498,127,B
67,3,5/5/94,22,F,103,The donut iced Joe,Non-sensible,edin_semantics,emo_sem_emo_sem,1.0210885994602,2,2,2,1,357797.850894551,119,B
67,3,5/5/94,22,F,104,The plants watered Luke,Non-sensible,edin_semantics,emo_sem_emo_sem,1.40879182342906,1,2,2,1,357800.003186991,129,B
67,3,5/5/94,22,F,105,The hospital visited Tom,Non-sensible,edin_semantics,emo_sem_emo_sem,1.20854762749514,2,2,2,1,357801.9555226,91,B
67,3,5/5/94,22,F,106,Phil sniffed the milk,Sensible,edin_semantics,emo_sem_emo_sem,1.56186714000069,1,1,1,1,357804.260736411,18,B
67,3,5/5/94,22,F,107,The hedge jumped Sara,Non-sensible,edin_semantics,emo_sem_emo_sem,1.22052875120426,1,1,1,1,357806.224845317,92,B
67,3,5/5/94,22,F,108,The beer drank Jack,Non-sensible,edin_semantics,emo_sem_emo_sem,1.13708134862827,1,2,2,1,357808.106594701,135,B
67,3,5/5/94,22,F,109,The rope pulled Andy,Non-sensible,edin_semantics,emo_sem_emo_sem,0.902071464050096,1,1,1,1,357809.753109377,148,B
67,3,5/5/94,22,F,110,Mike paid the bill,Sensible,edin_semantics,emo_sem_emo_sem,0.90264074143488,2,2,2,1,357811.39968082,59,B
67,3,5/5/94,22,F,111,The socks knitted Ryan,Non-sensible,edin_semantics,emo_sem_emo_sem,1.47958202537848,1,2,2,1,357813.622520677,141,B
67,3,5/5/94,22,F,112,Jon jumped the fence,Sensible,edin_semantics,emo_sem_emo_sem,1.16229119547643,2,2,2,1,357815.528299339,17,B
67,3,5/5/94,22,F,113,Lara filed the papers,Sensible,edin_semantics,emo_sem_emo_sem,1.43194329162361,2,1,1,1,357817.703642541,24,B
67,3,5/5/94,22,F,114,Will mashed the potatoes,Sensible,edin_semantics,emo_sem_emo_sem,1.78491578542162,2,1,1,1,357820.232255224,28,B
67,3,5/5/94,22,F,115,The portrait painted Jay,Non-sensible,edin_semantics,emo_sem_emo_sem,1.38516504876316,1,1,1,1,357822.361036348,110,B
67,3,5/5/94,22,F,116,Lily dented the lorry,Sensible,edin_semantics,emo_sem_emo_sem,1.04401396028697,2,2,2,1,357824.148717699,71,B
67,3,5/5/94,22,F,117,The opera watched Adam,Non-sensible,edin_semantics,emo_sem_emo_sem,0.949770493025426,1,1,1,1,357825.842313376,108,B
67,3,5/5/94,22,F,118,Carl brushed the teeth,Sensible,edin_semantics,emo_sem_emo_sem,1.19724386365851,2,1,1,1,357827.78289012,72,B
67,3,5/5/94,22,F,119,Joe wore the jumper,Sensible,edin_semantics,emo_sem_emo_sem,1.49078027240466,2,2,2,1,357830.017507444,25,B
67,3,5/5/94,22,F,120,The gum swallowed Owen,Non-sensible,edin_semantics,emo_sem_emo_sem,1.20772850950016,1,2,2,1,357831.969827017,97,B
67,3,5/5/94,22,F,121,The church described Erin,Non-sensible,edin_semantics,emo_sem_emo_sem,1.11312840203755,2,2,2,1,357833.828110949,117,B
67,3,5/5/94,22,F,122,Phil typed the letter,Sensible,edin_semantics,emo_sem_emo_sem,0.902261971496046,1,2,2,1,357835.474642943,49,B
67,3,5/5/94,22,F,123,The garage tidied Erin,Non-sensible,edin_semantics,emo_sem_emo_sem,1.06704419647576,1,2,2,1,357837.285878907,77,B
67,3,5/5/94,22,F,124,The cream whisked Tom,Non-sensible,edin_semantics,emo_sem_emo_sem,0.891372898186091,2,2,2,1,357838.920652998,137,B
67,3,5/5/94,22,F,125,Jon cut the paper,Sensible,edin_semantics,emo_sem_emo_sem,1.31462308386108,1,1,1,1,357840.978787603,20,B
67,3,5/5/94,22,F,126,The button pushed Ian,Non-sensible,edin_semantics,emo_sem_emo_sem,1.16198971896665,1,2,2,1,357842.884107315,101,B
67,3,5/5/94,22,F,127,Beth wiped the table,Sensible,edin_semantics,emo_sem_emo_sem,1.1734541633632,1,1,1,1,357844.801196477,40,B
67,3,5/5/94,22,F,128,Lily got the kettle,Sensible,edin_semantics,emo_sem_emo_sem,1.0208762830589,2,2,2,1,357846.565366512,13,B
67,3,5/5/94,22,F,129,The trousers ironed Eve,Non-sensible,edin_semantics,emo_sem_emo_sem,1.15003713936312,2,1,1,1,357848.458913248,130,B
67,3,5/5/94,22,F,130,Amy measured the thread,Sensible,edin_semantics,emo_sem_emo_sem,1.05480553489178,2,2,2,1,357850.258329731,51,B
67,3,5/5/94,22,F,131,Tim pulled the handle,Sensible,edin_semantics,emo_sem_emo_sem,1.14907786686672,1,2,2,1,357852.151885447,73,B
67,3,5/5/94,22,F,132,The ice crushed Josh,Non-sensible,edin_semantics,emo_sem_emo_sem,1.13720578781795,2,2,2,1,357854.033645415,81,B
67,3,5/5/94,22,F,133,The party cancelled Phil,Non-sensible,edin_semantics,emo_sem_emo_sem,1.50205260573421,1,1,1,1,357856.280040526,82,B
67,3,5/5/94,22,F,134,The debt paid Zoe,Non-sensible,edin_semantics,emo_sem_emo_sem,1.49039701238507,1,1,1,1,357858.514637003,134,B
67,3,5/5/94,22,F,135,The radio fixed Luke,Non-sensible,edin_semantics,emo_sem_emo_sem,1.19634488649899,2,1,1,1,357860.455222086,112,B
67,3,5/5/94,22,F,136,Jack mixed the fruits,Sensible,edin_semantics,emo_sem_emo_sem,0.820735358807724,2,1,1,1,357862.019447156,8,B
67,3,5/5/94,22,F,137,Erin posted the card,Sensible,edin_semantics,emo_sem_emo_sem,1.02076659695012,1,1,1,1,357863.78358095,36,B
67,3,5/5/94,22,F,138,The trophy polished Anna,Non-sensible,edin_semantics,emo_sem_emo_sem,1.16174597205827,1,1,1,1,357865.688898418,104,B
67,3,5/5/94,22,F,139,Jen searched the room,Sensible,edin_semantics,emo_sem_emo_sem,1.60874673025683,1,1,1,1,357868.041114655,10,B
67,3,5/5/94,22,F,140,Joe solved the puzzle,Sensible,edin_semantics,emo_sem_emo_sem,0.867778516141698,2,1,1,1,357869.65239956,34,B
67,3,5/5/94,22,F,141,Dan whisked the eggs,Sensible,edin_semantics,emo_sem_emo_sem,0.808899521129206,1,1,1,1,357871.204866407,62,B
67,3,5/5/94,22,F,142,The shed built Rose,Non-sensible,edin_semantics,emo_sem_emo_sem,1.37246166437399,1,2,2,1,357873.321830616,121,B
67,3,5/5/94,22,F,143,Jeff watered the garden,Sensible,edin_semantics,emo_sem_emo_sem,0.701942727144342,1,1,1,1,357874.76845934,54,B
67,3,5/5/94,22,F,144,The lemon squeezed Jay,Non-sensible,edin_semantics,emo_sem_emo_sem,0.972847233526409,1,1,1,1,357876.485610272,76,B
67,3,5/5/94,22,F,145,Phil chopped the herbs,Sensible,edin_semantics,emo_sem_emo_sem,1.20758835499873,2,2,2,1,357878.437929203,27,B
67,3,5/5/94,22,F,146,Bill counted the sheets,Sensible,edin_semantics,emo_sem_emo_sem,0.820648764492944,1,1,1,1,357880.002172234,48,B
67,3,5/5/94,22,F,147,Mark washed the dishes,Sensible,edin_semantics,emo_sem_emo_sem,0.726660269370768,1,2,2,1,357881.472327988,57,B
67,3,5/5/94,22,F,148,The report filed Ian,Non-sensible,edin_semantics,emo_sem_emo_sem,0.985328038514126,2,2,2,1,357883.201161454,99,B
67,3,5/5/94,22,F,149,The perfume sniffed Tim,Non-sensible,edin_semantics,emo_sem_emo_sem,0.855997842212673,1,2,2,1,357884.800651574,93,B
67,3,5/5/94,22,F,150,Luke climbed the hill,Sensible,edin_semantics,emo_sem_emo_sem,1.19700011675013,2,1,1,1,357886.74129599,68,B
67,3,5/5/94,22,F,24,Hugh dialed the hotline,Sensible,edin_semantics,emo_sem_emo_sem,1.56680590176256,1,2,2,1,357915.826473354,138,A
67,3,5/5/94,22,F,25,The folder carried Dan,Non-sensible,edin_semantics,emo_sem_emo_sem,1.16114430205198,1,2,2,1,357917.731765164,30,A
67,3,5/5/94,22,F,26,Luke fixed the radio,Sensible,edin_semantics,emo_sem_emo_sem,0.902204562677071,1,2,2,1,357919.37832474,112,A
67,3,5/5/94,22,F,27,Tom grated the carrots,Sensible,edin_semantics,emo_sem_emo_sem,1.19696996908169,1,2,2,1,357921.318916237,140,A
67,3,5/5/94,22,F,28,Max kicked the door,Sensible,edin_semantics,emo_sem_emo_sem,0.80815481004538,1,2,2,1,357922.871382122,114,A
67,3,5/5/94,22,F,29,The gun carried Ryan,Non-sensible,edin_semantics,emo_sem_emo_sem,0.879652519477531,1,1,1,1,357924.494408253,75,A
67,3,5/5/94,22,F,30,The fence jumped Jon,Non-sensible,edin_semantics,emo_sem_emo_sem,1.11500268767122,2,1,1,1,357926.35266332,17,A
67,3,5/5/94,22,F,31,The pen described John,Non-sensible,edin_semantics,emo_sem_emo_sem,0.832530144427437,2,2,2,1,357927.928630258,42,A
67,3,5/5/94,22,F,32,Fred lent the car,Sensible,edin_semantics,emo_sem_emo_sem,0.773674561933149,1,2,2,1,357929.445799984,94,A
67,3,5/5/94,22,F,33,Fred served the dessert,Sensible,edin_semantics,emo_sem_emo_sem,1.12644596450264,2,1,1,1,357931.315852402,145,A
67,3,5/5/94,22,F,34,Ryan knitted the socks,Sensible,edin_semantics,emo_sem_emo_sem,0.820500912726857,2,1,1,1,357932.880037704,141,A
67,3,5/5/94,22,F,35,Lucy counted the shoes,Sensible,edin_semantics,emo_sem_emo_sem,0.949992751702666,1,1,1,1,357934.573673151,123,A
67,3,5/5/94,22,F,36,The letter typed Phil,Non-sensible,edin_semantics,emo_sem_emo_sem,0.844200490857475,1,1,1,1,357936.161397029,49,A
67,3,5/5/94,22,F,37,The scarf knitted Tom,Non-sensible,edin_semantics,emo_sem_emo_sem,0.808936083165463,1,2,2,1,357937.713890817,66,A
67,3,5/5/94,22,F,38,The floor cleaned Tim,Non-sensible,edin_semantics,emo_sem_emo_sem,0.820717719267122,2,1,1,1,357939.278115888,5,A
67,3,5/5/94,22,F,39,Bill trimmed the hair,Sensible,edin_semantics,emo_sem_emo_sem,0.879520703747403,2,1,1,1,357940.901145546,107,A
67,3,5/5/94,22,F,40,The card posted Erin,Non-sensible,edin_semantics,emo_sem_emo_sem,0.86732181138359,2,2,2,1,357942.51239389,36,A
67,3,5/5/94,22,F,41,The hill climbed Luke,Non-sensible,edin_semantics,emo_sem_emo_sem,0.85612933721859,2,2,2,1,357944.111945588,68,A
67,3,5/5/94,22,F,42,Tom whisked the cream,Sensible,edin_semantics,emo_sem_emo_sem,0.973528121365234,2,1,1,1,357945.829236995,137,A
67,3,5/5/94,22,F,43,The jumper wore Joe,Non-sensible,edin_semantics,emo_sem_emo_sem,0.889766734209843,2,1,1,1,357947.463809033,25,A
67,3,5/5/94,22,F,44,Eve typed the message,Sensible,edin_semantics,emo_sem_emo_sem,0.86737088143127,2,2,2,1,357949.075119917,124,A
67,3,5/5/94,22,F,45,The tomato sliced Liz,Non-sensible,edin_semantics,emo_sem_emo_sem,0.99708882777486,1,1,1,1,357950.815744961,3,A
67,3,5/5/94,22,F,46,The lorry dented Lily,Non-sensible,edin_semantics,emo_sem_emo_sem,1.05590688611846,1,1,1,1,357952.615200892,71,A
67,3,5/5/94,22,F,47,The movie watched Ella,Non-sensible,edin_semantics,emo_sem_emo_sem,0.82061476825038,2,1,1,1,357954.179442641,33,A
67,3,5/5/94,22,F,48,The bike kicked Matt,Non-sensible,edin_semantics,emo_sem_emo_sem,1.24418310780311,1,1,1,1,357956.167027904,39,A
67,3,5/5/94,22,F,49,The money offered Matt,Non-sensible,edin_semantics,emo_sem_emo_sem,0.902596482075751,1,1,1,1,357957.813571765,9,A
67,3,5/5/94,22,F,50,Fred stored the rice,Sensible,edin_semantics,emo_sem_emo_sem,0.855850952619221,2,1,1,1,357959.413124746,127,A
67,3,5/5/94,22,F,51,Liam sliced the onion,Sensible,edin_semantics,emo_sem_emo_sem,1.43210750009166,2,2,2,1,357961.588901561,78,A
67,3,5/5/94,22,F,52,The trolley pushed Matt,Non-sensible,edin_semantics,emo_sem_emo_sem,1.12648894090671,1,2,2,1,357963.458878289,26,A
67,3,5/5/94,22,F,53,The thread measured Amy,Non-sensible,edin_semantics,emo_sem_emo_sem,0.867639003088698,1,1,1,1,357965.070187249,51,A
67,3,5/5/94,22,F,54,The sheets counted Bill,Non-sensible,edin_semantics,emo_sem_emo_sem,0.714857786486391,1,2,2,1,357966.528579327,48,A
67,3,5/5/94,22,F,55,The potatoes mashed Will,Non-sensible,edin_semantics,emo_sem_emo_sem,0.844102350645699,2,2,2,1,357968.116308658,28,A
67,3,5/5/94,22,F,56,Adam watched the opera,Sensible,edin_semantics,emo_sem_emo_sem,0.891374501748942,1,2,2,1,357969.751124443,108,A
67,3,5/5/94,22,F,57,The dish served Kate,Non-sensible,edin_semantics,emo_sem_emo_sem,1.14963207044639,2,2,2,1,357971.644640711,70,A
67,3,5/5/94,22,F,58,The puzzle solved Joe,Non-sensible,edin_semantics,emo_sem_emo_sem,1.00851606874494,1,2,2,1,357973.397086519,34,A
67,3,5/5/94,22,F,59,The coins polished Jon,Non-sensible,edin_semantics,emo_sem_emo_sem,0.997204286861233,2,1,1,1,357975.137685905,29,A
67,3,5/5/94,22,F,60,Mike ate the steak,Sensible,edin_semantics,emo_sem_emo_sem,0.902710658265278,2,2,2,1,357976.784247085,142,A
67,3,5/5/94,22,F,61,The fur stroked Rob,Non-sensible,edin_semantics,emo_sem_emo_sem,0.985099044628441,2,1,1,1,357978.513154316,41,A
67,3,5/5/94,22,F,62,The teeth brushed Carl,Non-sensible,edin_semantics,emo_sem_emo_sem,1.03151038428769,1,2,2,1,357980.289044409,72,A
67,3,5/5/94,22,F,63,Anna polished the trophy,Sensible,edin_semantics,emo_sem_emo_sem,1.20831254002405,2,2,2,1,357982.241386433,104,A
67,3,5/5/94,22,F,64,Adam chewed the fat,Sensible,edin_semantics,emo_sem_emo_sem,0.985041635809466,2,2,2,1,357983.970276024,106,A
67,3,5/5/94,22,F,65,The bucket lent Max,Non-sensible,edin_semantics,emo_sem_emo_sem,1.11449498846196,1,1,1,1,357985.828558673,19,A
67,3,5/5/94,22,F,66,The jar labeled Liz,Non-sensible,edin_semantics,emo_sem_emo_sem,1.25612606591312,1,1,1,1,357987.827911461,61,A
67,3,5/5/94,22,F,67,The room searched Jen,Non-sensible,edin_semantics,emo_sem_emo_sem,1.11441063915845,1,2,2,1,357989.686162679,10,A
67,3,5/5/94,22,F,68,The herbs chopped Phil,Non-sensible,edin_semantics,emo_sem_emo_sem,1.25556737231091,2,1,1,1,357991.685586667,27,A
67,3,5/5/94,22,F,69,Ella mashed the turnip,Sensible,edin_semantics,emo_sem_emo_sem,0.902917201747186,2,1,1,1,357993.332090117,103,A
67,3,5/5/94,22,F,70,Fred chopped the carrots,Sensible,edin_semantics,emo_sem_emo_sem,1.13806852372363,2,2,2,1,357995.213891458,102,A
67,3,5/5/94,22,F,71,The parcel mailed Rob,Non-sensible,edin_semantics,emo_sem_emo_sem,0.937997195636854,2,2,2,1,357996.895751363,14,A
67,3,5/5/94,22,F,72,The paper cut Jon,Non-sensible,edin_semantics,emo_sem_emo_sem,0.973113430838566,2,2,2,1,357998.612849055,20,A
67,3,5/5/94,22,F,73,The plans cancelled Ian,Non-sensible,edin_semantics,emo_sem_emo_sem,1.2319463705644,2,1,1,1,358000.588697262,7,A
67,3,5/5/94,22,F,74,Jay painted the portrait,Sensible,edin_semantics,emo_sem_emo_sem,0.76179061626317,2,2,2,1,358002.094106199,110,A
67,3,5/5/94,22,F,75,Emma pulled the rope,Sensible,edin_semantics,emo_sem_emo_sem,0.985184997494798,2,2,2,1,358003.823019203,120,A
67,3,5/5/94,22,F,76,The house built Kate,Non-sensible,edin_semantics,emo_sem_emo_sem,0.879036096332129,2,2,2,1,358005.446050466,46,A
67,3,5/5/94,22,F,77,The papers filed Lara,Non-sensible,edin_semantics,emo_sem_emo_sem,0.879001779307146,1,2,2,1,358007.069067617,24,A
67,3,5/5/94,22,F,78,Andy pulled the rope,Sensible,edin_semantics,emo_sem_emo_sem,0.890604133193847,1,2,2,1,358008.703857103,148,A
67,3,5/5/94,22,F,79,The dishes washed Mark,Non-sensible,edin_semantics,emo_sem_emo_sem,1.2083577614394,1,1,1,1,358010.656233443,57,A
67,3,5/5/94,22,F,80,The bushes trimmed Jon,Non-sensible,edin_semantics,emo_sem_emo_sem,0.925794133916497,1,2,2,1,358012.326339614,32,A
67,3,5/5/94,22,F,81,Alex dusted the house,Sensible,edin_semantics,emo_sem_emo_sem,0.72558906575432,1,2,2,1,358013.79641166,122,A
67,3,5/5/94,22,F,82,Tom visited the hospital,Sensible,edin_semantics,emo_sem_emo_sem,0.820165440032724,1,1,1,1,358015.360661106,91,A
67,3,5/5/94,22,F,83,The ham ate Tim,Non-sensible,edin_semantics,emo_sem_emo_sem,0.996470801066607,1,1,1,1,358017.101278453,67,A
67,3,5/5/94,22,F,84,Lucy wiped the desk,Sensible,edin_semantics,emo_sem_emo_sem,1.06721449858742,2,1,1,1,358018.912528849,115,A
67,3,5/5/94,22,F,85,The fruits mixed Jack,Non-sensible,edin_semantics,emo_sem_emo_sem,1.0432413466624,2,2,2,1,358020.700203144,8,A
67,3,5/5/94,22,F,86,Rob measured the curtains,Sensible,edin_semantics,emo_sem_emo_sem,0.796753868169617,1,2,2,1,358022.240890279,126,A
67,3,5/5/94,22,F,87,The bill paid Mike,Non-sensible,edin_semantics,emo_sem_emo_sem,0.855349347111769,1,1,1,1,358023.840379116,59,A
67,3,5/5/94,22,F,88,Sam sucked the candy,Sensible,edin_semantics,emo_sem_emo_sem,0.820176023757085,1,1,1,1,358025.404640749,87,A
67,3,5/5/94,22,F,89,Owen swallowed the gum,Sensible,edin_semantics,emo_sem_emo_sem,0.761099465424195,1,1,1,1,358026.910054497,97,A
67,3,5/5/94,22,F,90,Erin described the church,Sensible,edin_semantics,emo_sem_emo_sem,1.01992791506927,2,1,1,1,358028.674253717,117,A
67,3,5/5/94,22,F,91,Ian filed the report,Sensible,edin_semantics,emo_sem_emo_sem,0.890598680940457,1,1,1,1,358030.309022677,99,A
67,3,5/5/94,22,F,92,The box lifted Kate,Non-sensible,edin_semantics,emo_sem_emo_sem,0.925782908685505,1,1,1,1,358031.979071119,69,A
67,3,5/5/94,22,F,93,Jane licked the plate,Sensible,edin_semantics,emo_sem_emo_sem,0.808330885192845,2,2,2,1,358033.531573887,96,A
67,3,5/5/94,22,F,94,Liam mixed the nuts,Sensible,edin_semantics,emo_sem_emo_sem,0.796892419049982,1,1,1,1,358035.072276096,83,A
67,3,5/5/94,22,F,95,The shirt ironed Josh,Non-sensible,edin_semantics,emo_sem_emo_sem,0.973108940757811,1,1,1,1,358036.789386938,55,A
67,3,5/5/94,22,F,96,Kate wore the dress,Sensible,edin_semantics,emo_sem_emo_sem,0.749442268512212,2,2,2,1,358038.28303284,100,A
67,3,5/5/94,22,F,97,Leo carried the wallet,Sensible,edin_semantics,emo_sem_emo_sem,0.878962651535403,1,2,2,1,358039.90606731,150,A
67,3,5/5/94,22,F,98,Tim sniffed the perfume,Sensible,edin_semantics,emo_sem_emo_sem,0.902596482075751,1,1,1,1,358041.552641639,93,A
67,3,5/5/94,22,F,99,Erin tidied the garage,Sensible,edin_semantics,emo_sem_emo_sem,1.03132051823195,2,1,1,1,358043.32852596,77,A
67,3,5/5/94,22,F,100,The tree hugged Amy,Non-sensible,edin_semantics,emo_sem_emo_sem,0.85519411880523,1,1,1,1,358044.928046548,11,A
67,3,5/5/94,22,F,101,The towels passed Phil,Non-sensible,edin_semantics,emo_sem_emo_sem,1.0315196851152,2,1,1,1,358046.703982183,43,A
67,3,5/5/94,22,F,102,Luke watered the plants,Sensible,edin_semantics,emo_sem_emo_sem,0.902355942351278,2,1,1,1,358048.350536949,129,A
67,3,5/5/94,22,F,103,The cake iced Mary,Non-sensible,edin_semantics,emo_sem_emo_sem,0.795461368048564,1,2,2,1,358049.891228254,44,A
67,3,5/5/94,22,F,104,Dan brushed the hair,Sensible,edin_semantics,emo_sem_emo_sem,0.760129929927643,1,1,1,1,358051.396686581,147,A
67,3,5/5/94,22,F,105,The room tidied Sam,Non-sensible,edin_semantics,emo_sem_emo_sem,0.960597025987227,1,2,2,1,358053.102018994,2,A
67,3,5/5/94,22,F,106,Max searched the internet,Sensible,edin_semantics,emo_sem_emo_sem,0.890735307475552,2,1,1,1,358054.736830931,85,A
67,3,5/5/94,22,F,107,The bowl scrubbed Liz,Non-sensible,edin_semantics,emo_sem_emo_sem,0.867110457154922,1,2,2,1,358056.348101404,56,A
67,3,5/5/94,22,F,108,The garden watered Jeff,Non-sensible,edin_semantics,emo_sem_emo_sem,1.03179614542751,2,2,2,1,358058.124021645,54,A
67,3,5/5/94,22,F,109,The handle pulled Tim,Non-sensible,edin_semantics,emo_sem_emo_sem,0.772928568010684,2,1,1,1,358059.641235309,73,A
67,3,5/5/94,22,F,110,The wall punched Jane,Non-sensible,edin_semantics,emo_sem_emo_sem,0.973021063604392,1,2,2,1,358061.358299326,50,A
67,3,5/5/94,22,F,111,Ian labeled the box,Sensible,edin_semantics,emo_sem_emo_sem,0.807997336785775,2,2,2,1,358062.910747893,136,A
67,3,5/5/94,22,F,112,Phil cancelled the party,Sensible,edin_semantics,emo_sem_emo_sem,0.726052184938453,2,2,2,1,358064.380908458,82,A
67,3,5/5/94,22,F,113,Jack drank the beer,Sensible,edin_semantics,emo_sem_emo_sem,0.99659107089974,2,1,1,1,358066.121576157,135,A
67,3,5/5/94,22,F,114,Jay sold the bed,Sensible,edin_semantics,emo_sem_emo_sem,0.843121589918155,1,1,1,1,358067.709303884,113,A
67,3,5/5/94,22,F,115,Jack posted the gift,Sensible,edin_semantics,emo_sem_emo_sem,0.819779935001861,1,1,1,1,358069.273538577,111,A
67,3,5/5/94,22,F,116,Tim took the ticket,Sensible,edin_semantics,emo_sem_emo_sem,0.984670242469292,2,2,2,1,358071.002390324,128,A
67,3,5/5/94,22,F,117,The museum visited Mary,Non-sensible,edin_semantics,emo_sem_emo_sem,0.784511037229095,2,2,2,1,358072.531394284,16,A
67,3,5/5/94,22,F,118,The garlic crushed Erin,Non-sensible,edin_semantics,emo_sem_emo_sem,0.690888803917915,2,2,2,1,358073.966203205,6,A
67,3,5/5/94,22,F,119,Luke read the poster,Sensible,edin_semantics,emo_sem_emo_sem,0.890371290734038,2,1,1,1,358075.601004879,79,A
67,3,5/5/94,22,F,120,The number dialed Tom,Non-sensible,edin_semantics,emo_sem_emo_sem,0.772908362734597,1,1,1,1,358077.11817685,63,A
67,3,5/5/94,22,F,121,Tom offered the sweets,Sensible,edin_semantics,emo_sem_emo_sem,0.772944283264223,1,2,2,1,358078.635358122,84,A
67,3,5/5/94,22,F,122,The toffee chewed Ben,Non-sensible,edin_semantics,emo_sem_emo_sem,1.02031470293878,2,1,1,1,358080.399527195,31,A
67,3,5/5/94,22,F,123,Leo passed the salt,Sensible,edin_semantics,emo_sem_emo_sem,0.81998262979323,1,2,2,1,358081.963786904,118,A
67,3,5/5/94,22,F,124,Ryan stroked the blanket,Sensible,edin_semantics,emo_sem_emo_sem,0.878721470362507,1,2,2,1,358083.586812714,116,A
67,3,5/5/94,22,F,125,Jack cleaned the bath,Sensible,edin_semantics,emo_sem_emo_sem,0.737608996569179,2,2,2,1,358085.068659341,80,A
67,3,5/5/94,22,F,126,The book read Sean,Non-sensible,edin_semantics,emo_sem_emo_sem,0.937677438138053,2,2,2,1,358086.750516038,4,A
67,3,5/5/94,22,F,127,The sofa sold Carl,Non-sensible,edin_semantics,emo_sem_emo_sem,0.937519323371816,1,2,2,1,358088.432373056,38,A
67,3,5/5/94,22,F,128,Alex wrote the report,Sensible,edin_semantics,emo_sem_emo_sem,0.913528531847987,1,1,1,1,358090.090670009,149,A
67,3,5/5/94,22,F,129,The milk sniffed Phil,Non-sensible,edin_semantics,emo_sem_emo_sem,0.713879270886537,2,2,2,1,358091.549045731,18,A
67,3,5/5/94,22,F,130,The ball squeezed Josh,Non-sensible,edin_semantics,emo_sem_emo_sem,1.02000713278539,1,1,1,1,358093.313211276,1,A
67,3,5/5/94,22,F,131,Ian mailed the invite,Sensible,edin_semantics,emo_sem_emo_sem,1.20854153385153,1,1,1,1,358095.265582164,89,A
67,3,5/5/94,22,F,132,Sara jumped the hedge,Sensible,edin_semantics,emo_sem_emo_sem,0.937324325786904,1,2,2,1,358096.947407431,92,A
67,3,5/5/94,22,F,133,Hugh kissed the rose,Sensible,edin_semantics,emo_sem_emo_sem,0.854851910902653,1,2,2,1,358098.546886646,98,A
67,3,5/5/94,22,F,134,Josh scrubbed the pot,Sensible,edin_semantics,emo_sem_emo_sem,1.0907533960999,2,1,1,1,358100.381619493,131,A
67,3,5/5/94,22,F,135,The cheese grated Andy,Non-sensible,edin_semantics,emo_sem_emo_sem,0.867392048996408,2,1,1,1,358101.992938716,65,A
67,3,5/5/94,22,F,136,Phil solved the problem,Sensible,edin_semantics,emo_sem_emo_sem,1.0322348899208,2,1,1,1,358103.768839072,109,A
67,3,5/5/94,22,F,137,The lesson taught Eve,Non-sensible,edin_semantics,emo_sem_emo_sem,0.784791346173733,2,1,1,1,358105.297759324,15,A
67,3,5/5/94,22,F,138,John carried the kettle,Sensible,edin_semantics,emo_sem_emo_sem,0.702750619908329,2,1,1,1,358106.744379388,105,A
67,3,5/5/94,22,F,139,The spoon licked Will,Non-sensible,edin_semantics,emo_sem_emo_sem,0.702315082657151,2,1,1,1,358108.191027676,21,A
67,3,5/5/94,22,F,140,The room entered Ryan,Non-sensible,edin_semantics,emo_sem_emo_sem,1.24365905195009,1,2,2,1,358110.178598186,58,A
67,3,5/5/94,22,F,141,Liz weighed the sugar,Sensible,edin_semantics,emo_sem_emo_sem,0.972566283133347,2,1,1,1,358111.89576804,139,A
67,3,5/5/94,22,F,142,Rose built the shed,Sensible,edin_semantics,emo_sem_emo_sem,0.785012642794754,1,1,1,1,358113.424696311,121,A
67,3,5/5/94,22,F,143,The table wiped Beth,Non-sensible,edin_semantics,emo_sem_emo_sem,0.985274478327483,2,2,2,1,358115.153604825,40,A
67,3,5/5/94,22,F,144,Jay squeezed the lemon,Sensible,edin_semantics,emo_sem_emo_sem,0.984917517285794,2,2,2,1,358116.882441177,76,A
67,3,5/5/94,22,F,145,Erin punched the monitor,Sensible,edin_semantics,emo_sem_emo_sem,0.832439701538533,1,1,1,1,358118.458464561,125,A
67,3,5/5/94,22,F,146,Amy lifted the crate,Sensible,edin_semantics,emo_sem_emo_sem,0.714663430408109,1,2,2,1,358119.916817191,144,A
67,3,5/5/94,22,F,147,Ian dented the bowl,Sensible,edin_semantics,emo_sem_emo_sem,0.77297026157612,1,2,1,0,358121.434016744,146,A
67,3,5/5/94,22,F,148,The pill swallowed Luke,Non-sensible,edin_semantics,emo_sem_emo_sem,0.784961327619385,1,2,2,1,358122.96295656,22,A
67,3,5/5/94,22,F,149,Josh crushed the ice,Sensible,edin_semantics,emo_sem_emo_sem,0.73762150463881,1,1,1,1,358124.44484456,81,A
67,3,5/5/94,22,F,150,Lucy cut the ribbon,Sensible,edin_semantics,emo_sem_emo_sem,0.9966741373064,2,1,1,1,358126.185527654,95,A
67,3,5/5/94,22,F,151,Joe iced the donut,Sensible,edin_semantics,emo_sem_emo_sem,0.891214141913224,1,1,1,1,358127.820321951,119,A
67,3,5/5/94,22,F,152,Kate hugged the pillow,Sensible,edin_semantics,emo_sem_emo_sem,1.03165278380038,1,2,2,1,358129.596214289,86,A
67,3,5/5/94,22,F,153,The wine stored Leo,Non-sensible,edin_semantics,emo_sem_emo_sem,1.06731071445392,1,2,2,1,358131.407480722,52,A
67,3,5/5/94,22,F,154,Ben got the radio,Sensible,edin_semantics,emo_sem_emo_sem,0.983311994757969,1,2,2,1,358133.13636005,88,A
67,3,5/5/94,22,F,155,The photo took Beth,Non-sensible,edin_semantics,emo_sem_emo_sem,1.33605068398174,2,1,1,1,358135.218080057,53,A
67,3,5/5/94,22,F,156,The flour weighed Jen,Non-sensible,edin_semantics,emo_sem_emo_sem,0.830525967350695,1,2,2,1,358136.794077463,64,A
67,3,5/5/94,22,F,157,The eggs whisked Dan,Non-sensible,edin_semantics,emo_sem_emo_sem,0.902447026688606,2,2,2,1,358138.440581875,62,A
67,3,5/5/94,22,F,158,The kettle got Lily,Non-sensible,edin_semantics,emo_sem_emo_sem,0.90281553362729,1,1,1,1,358140.087129264,13,A
67,3,5/5/94,22,F,159,Beth washed the pan,Sensible,edin_semantics,emo_sem_emo_sem,0.914240850193892,2,2,2,1,358141.745418841,132,A
67,3,5/5/94,22,F,160,The picture painted Ryan,Non-sensible,edin_semantics,emo_sem_emo_sem,0.867209238756914,2,1,1,1,358143.356720103,35,A
67,3,5/5/94,22,F,161,Ian pushed the button,Sensible,edin_semantics,emo_sem_emo_sem,0.94974451471353,2,1,1,1,358145.050289482,101,A
67,3,5/5/94,22,F,162,Zoe paid the debt,Sensible,edin_semantics,emo_sem_emo_sem,1.10279738088138,1,2,2,1,358146.896788249,134,A
67,3,5/5/94,22,F,163,The lolly sucked Leah,Non-sensible,edin_semantics,emo_sem_emo_sem,1.00834159721853,2,2,2,1,358148.649191081,12,A
67,3,5/5/94,22,F,164,The laptop fixed Jen,Non-sensible,edin_semantics,emo_sem_emo_sem,0.843842246977147,1,1,1,1,358150.236933561,37,A
67,3,5/5/94,22,F,165,The story wrote Ewan,Non-sensible,edin_semantics,emo_sem_emo_sem,0.691090215870645,1,2,2,1,358151.671807909,74,A
67,3,5/5/94,22,F,166,The mirror kissed Max,Non-sensible,edin_semantics,emo_sem_emo_sem,1.18489230872365,1,1,1,1,358153.600633165,23,A
67,3,5/5/94,22,F,167,Josh taught the rules,Sensible,edin_semantics,emo_sem_emo_sem,0.926480473950505,1,2,2,1,358155.270855436,90,A
67,3,5/5/94,22,F,168,The juice drank Matt,Non-sensible,edin_semantics,emo_sem_emo_sem,0.761478556029033,1,2,2,1,358156.776112352,60,A
67,3,5/5/94,22,F,169,Joe entered the office,Sensible,edin_semantics,emo_sem_emo_sem,0.938034078397322,1,1,1,1,358158.457965521,133,A
67,3,5/5/94,22,F,170,The lever pulled Hugh,Non-sensible,edin_semantics,emo_sem_emo_sem,0.797095755289774,1,1,1,1,358159.998669976,45,A
67,3,5/5/94,22,F,171,Eve ironed the trousers,Sensible,edin_semantics,emo_sem_emo_sem,0.808356863446534,1,2,2,1,358161.551149331,130,A
67,3,5/5/94,22,F,172,Ben climbed the stairs,Sensible,edin_semantics,emo_sem_emo_sem,0.938317915308289,2,1,1,1,358163.232972353,143,A
67,3,5/5/94,22,F,173,The shelf dusted Jake,Non-sensible,edin_semantics,emo_sem_emo_sem,0.78471148700919,2,1,1,1,358164.761919546,47,A
