subject_column,AssignedList_column,subject_dob_column,subject_age_column,subject_gender_column,trialnum_column,Stim_column,Type_column,Experiment_column,OrderGroup_column,ReactionTime_column,StimSide_column,StimPosition_column,Response_column,Valid_column,TrialEndSecs_column,PairID_column,List_column
68,4,25/4/90,26,f,1,Tim cleaned the floor,Sensible,edin_semantics,sem_emo_sem_emo,0.838387447292916,2,2,2,1,594469.320478783,5,B
68,4,25/4/90,26,f,2,The dress wore Kate,Non-sensible,edin_semantics,sem_emo_sem_emo,1.00907540379558,2,1,1,1,594471.072892198,100,B
68,4,25/4/90,26,f,3,The garage tidied Erin,Non-sensible,edin_semantics,sem_emo_sem_emo,0.785678136046045,1,2,2,1,594472.60179866,77,B
68,4,25/4/90,26,f,4,Ian cancelled the plans,Sensible,edin_semantics,sem_emo_sem_emo,0.809121138299815,1,2,2,1,594474.154303673,7,B
68,4,25/4/90,26,f,5,The report filed Ian,Non-sensible,edin_semantics,sem_emo_sem_emo,0.832876842352562,1,2,2,1,594475.73027478,99,B
68,4,25/4/90,26,f,6,Tim pulled the handle,Sensible,edin_semantics,sem_emo_sem_emo,0.821205213083886,1,2,2,1,594477.294495681,73,B
68,4,25/4/90,26,f,7,Will licked the spoon,Sensible,edin_semantics,sem_emo_sem_emo,1.11529807036277,2,2,2,1,594479.152743051,21,B
68,4,25/4/90,26,f,8,Jen weighed the flour,Sensible,edin_semantics,sem_emo_sem_emo,0.880560797639191,2,1,1,1,594480.775798367,64,B
68,4,25/4/90,26,f,9,Jen fixed the laptop,Sensible,edin_semantics,sem_emo_sem_emo,1.38546556304209,1,2,2,1,594482.904521762,37,B
68,4,25/4/90,26,f,10,The radio got Ben,Non-sensible,edin_semantics,sem_emo_sem_emo,1.3743141409941,2,1,1,1,594485.021526702,88,B
68,4,25/4/90,26,f,11,The shed built Rose,Non-sensible,edin_semantics,sem_emo_sem_emo,1.13863106595818,2,2,2,1,594486.903292123,121,B
68,4,25/4/90,26,f,12,The rose kissed Hugh,Non-sensible,edin_semantics,sem_emo_sem_emo,0.938678083359264,1,1,1,1,594488.585163253,98,B
68,4,25/4/90,26,f,13,Lara filed the papers,Sensible,edin_semantics,sem_emo_sem_emo,1.07972256466746,1,1,1,1,594490.408244034,24,B
68,4,25/4/90,26,f,14,Jake dusted the shelf,Sensible,edin_semantics,sem_emo_sem_emo,0.97384884103667,2,2,2,1,594492.125252246,47,B
68,4,25/4/90,26,f,15,Liz sliced the tomato,Sensible,edin_semantics,sem_emo_sem_emo,1.65625845908653,1,2,2,1,594494.524499774,3,B
68,4,25/4/90,26,f,16,The steak ate Mike,Non-sensible,edin_semantics,sem_emo_sem_emo,1.42062637826893,2,1,1,1,594496.688534401,142,B
68,4,25/4/90,26,f,17,Jon cut the paper,Sensible,edin_semantics,sem_emo_sem_emo,1.13875999522861,1,1,1,1,594498.570312971,20,B
68,4,25/4/90,26,f,18,Matt kicked the bike,Sensible,edin_semantics,sem_emo_sem_emo,1.2433748942567,1,2,2,1,594500.557938966,39,B
68,4,25/4/90,26,f,19,Luke swallowed the pill,Sensible,edin_semantics,sem_emo_sem_emo,1.09140798496082,2,1,1,1,594502.392685604,22,B
68,4,25/4/90,26,f,20,The portrait painted Jay,Non-sensible,edin_semantics,sem_emo_sem_emo,0.903487441246398,2,1,1,1,594504.039253198,110,B
68,4,25/4/90,26,f,21,Tom knitted the scarf,Sensible,edin_semantics,sem_emo_sem_emo,1.23312052513938,2,1,1,1,594506.015120328,66,B
68,4,25/4/90,26,f,22,The door kicked Max,Non-sensible,edin_semantics,sem_emo_sem_emo,0.868024187395349,1,1,1,1,594507.626355201,114,B
68,4,25/4/90,26,f,23,Kate served the dish,Sensible,edin_semantics,sem_emo_sem_emo,1.2089241524227,2,1,1,1,594509.578702035,70,B
68,4,25/4/90,26,f,24,The rope pulled Andy,Non-sensible,edin_semantics,sem_emo_sem_emo,3.39707304839976,1,1,1,1,594513.718652221,148,B
68,4,25/4/90,26,f,25,The turnip mashed Ella,Non-sensible,edin_semantics,sem_emo_sem_emo,1.37367879541125,2,2,2,1,594515.835641446,103,B
68,4,25/4/90,26,f,26,The dessert served Fred,Non-sensible,edin_semantics,sem_emo_sem_emo,1.46692225884181,2,2,1,0,594518.046746492,145,B
68,4,25/4/90,26,f,27,The gift posted Jack,Non-sensible,edin_semantics,sem_emo_sem_emo,2.40887841780204,1,2,2,1,594521.198720457,111,B
68,4,25/4/90,26,f,28,Jane punched the wall,Sensible,edin_semantics,sem_emo_sem_emo,1.56193384958897,2,1,1,1,594523.503847032,50,B
68,4,25/4/90,26,f,29,Ewan wrote the story,Sensible,edin_semantics,sem_emo_sem_emo,1.23272636067122,1,1,1,1,594525.47971352,74,B
68,4,25/4/90,26,f,30,Phil sniffed the milk,Sensible,edin_semantics,sem_emo_sem_emo,1.10357095662039,2,1,1,1,594527.326224796,18,B
68,4,25/4/90,26,f,31,The gum swallowed Owen,Non-sensible,edin_semantics,sem_emo_sem_emo,1.18586665508337,2,2,2,1,594529.255108102,97,B
68,4,25/4/90,26,f,32,Liz scrubbed the bowl,Sensible,edin_semantics,sem_emo_sem_emo,1.40929952263832,1,1,1,1,594531.407354358,56,B
68,4,25/4/90,26,f,33,The hotline dialed Hugh,Non-sensible,edin_semantics,sem_emo_sem_emo,1.18501161644235,2,1,1,1,594533.336156201,138,B
68,4,25/4/90,26,f,34,The party cancelled Phil,Non-sensible,edin_semantics,sem_emo_sem_emo,1.30317659967113,1,1,1,1,594535.382577162,82,B
68,4,25/4/90,26,f,35,The internet searched Max,Non-sensible,edin_semantics,sem_emo_sem_emo,1.29145205183886,1,2,2,1,594537.417270368,85,B
68,4,25/4/90,26,f,36,Bill counted the sheets,Sensible,edin_semantics,sem_emo_sem_emo,1.11515406728722,2,1,1,1,594539.275519662,48,B
68,4,25/4/90,26,f,37,The crate lifted Amy,Non-sensible,edin_semantics,sem_emo_sem_emo,1.24478509859182,2,1,1,1,594541.263126734,144,B
68,4,25/4/90,26,f,38,The poster read Luke,Non-sensible,edin_semantics,sem_emo_sem_emo,1.04441453912295,1,2,2,1,594543.050776655,79,B
68,4,25/4/90,26,f,39,The pot scrubbed Josh,Non-sensible,edin_semantics,sem_emo_sem_emo,1.30301912641153,2,2,2,1,594545.09724829,131,B
68,4,25/4/90,26,f,40,Josh squeezed the ball,Sensible,edin_semantics,sem_emo_sem_emo,1.02122907468583,1,2,2,1,594546.861379518,1,B
68,4,25/4/90,26,f,41,Ryan carried the gun,Sensible,edin_semantics,sem_emo_sem_emo,1.12657296948601,2,2,2,1,594548.73142456,75,B
68,4,25/4/90,26,f,42,Carl sold the sofa,Sensible,edin_semantics,sem_emo_sem_emo,1.24461640010122,2,1,1,1,594550.719067232,38,B
68,4,25/4/90,26,f,43,The bath cleaned Jack,Non-sensible,edin_semantics,sem_emo_sem_emo,1.00960170465987,2,1,1,1,594552.47145499,80,B
68,4,25/4/90,26,f,44,Erin crushed the garlic,Sensible,edin_semantics,sem_emo_sem_emo,1.05574973346666,2,1,1,1,594554.270938823,6,B
68,4,25/4/90,26,f,45,Jon trimmed the bushes,Sensible,edin_semantics,sem_emo_sem_emo,0.855871157953516,1,1,1,1,594555.870412266,32,B
68,4,25/4/90,26,f,46,The box labeled Ian,Non-sensible,edin_semantics,sem_emo_sem_emo,1.03262199845631,2,1,1,1,594557.646357844,136,B
68,4,25/4/90,26,f,47,Rob stroked the fur,Sensible,edin_semantics,sem_emo_sem_emo,0.832237006747164,1,2,2,1,594559.222358778,41,B
68,4,25/4/90,26,f,48,Matt offered the money,Sensible,edin_semantics,sem_emo_sem_emo,0.844961237860844,1,2,2,1,594560.810115049,9,B
68,4,25/4/90,26,f,49,The house dusted Alex,Non-sensible,edin_semantics,sem_emo_sem_emo,1.17383838549722,1,1,1,1,594562.727163158,122,B
68,4,25/4/90,26,f,50,The trousers ironed Eve,Non-sensible,edin_semantics,sem_emo_sem_emo,0.879743603873067,1,1,1,1,594564.350196986,130,B
68,4,25/4/90,26,f,51,The rules taught Josh,Non-sensible,edin_semantics,sem_emo_sem_emo,0.926790609839372,2,1,1,1,594566.020303478,90,B
68,4,25/4/90,26,f,52,The plants watered Luke,Non-sensible,edin_semantics,sem_emo_sem_emo,1.03275221074,2,2,2,1,594567.796190364,129,B
68,4,25/4/90,26,f,53,Mark washed the dishes,Sensible,edin_semantics,sem_emo_sem_emo,0.914818145567551,1,2,2,1,594569.454478016,57,B
68,4,25/4/90,26,f,54,The sweets offered Tom,Non-sensible,edin_semantics,sem_emo_sem_emo,1.12613743217662,1,1,1,1,594571.324539094,84,B
68,4,25/4/90,26,f,55,Tom dialed the number,Sensible,edin_semantics,sem_emo_sem_emo,1.18532046955079,1,2,2,1,594573.253328108,63,B
68,4,25/4/90,26,f,56,Leo stored the wine,Sensible,edin_semantics,sem_emo_sem_emo,0.738598095951602,1,1,1,1,594574.735223163,52,B
68,4,25/4/90,26,f,57,Lily got the kettle,Sensible,edin_semantics,sem_emo_sem_emo,1.0088929142803,1,2,2,1,594576.487654859,13,B
68,4,25/4/90,26,f,58,The debt paid Zoe,Non-sensible,edin_semantics,sem_emo_sem_emo,1.64443480863702,1,1,1,1,594578.875129731,134,B
68,4,25/4/90,26,f,59,The ribbon cut Lucy,Non-sensible,edin_semantics,sem_emo_sem_emo,0.809504398377612,2,2,2,1,594580.427600427,95,B
68,4,25/4/90,26,f,60,Mary visited the museum,Sensible,edin_semantics,sem_emo_sem_emo,0.937628688756377,1,1,1,1,594582.10945071,16,B
68,4,25/4/90,26,f,61,Ryan painted the picture,Sensible,edin_semantics,sem_emo_sem_emo,0.879753546207212,1,2,2,1,594583.732479727,35,B
68,4,25/4/90,26,f,62,The trophy polished Anna,Non-sensible,edin_semantics,sem_emo_sem_emo,1.091448395513,1,1,1,1,594585.567217064,104,B
68,4,25/4/90,26,f,63,Jon polished the coins,Sensible,edin_semantics,sem_emo_sem_emo,0.868144777952693,1,2,2,1,594587.178465408,29,B
68,4,25/4/90,26,f,64,Amy measured the thread,Sensible,edin_semantics,sem_emo_sem_emo,0.868177170632407,2,2,2,1,594588.78974871,51,B
68,4,25/4/90,26,f,65,Beth wiped the table,Sensible,edin_semantics,sem_emo_sem_emo,0.890937360934913,2,1,1,1,594590.424571551,40,B
68,4,25/4/90,26,f,66,Jack mixed the fruits,Sensible,edin_semantics,sem_emo_sem_emo,0.820885134860873,2,1,1,1,594591.988786679,8,B
68,4,25/4/90,26,f,67,The pillow hugged Kate,Non-sensible,edin_semantics,sem_emo_sem_emo,0.856449415441602,1,1,1,1,594593.588299249,86,B
68,4,25/4/90,26,f,68,Hugh pulled the lever,Sensible,edin_semantics,sem_emo_sem_emo,0.926442628959194,1,2,2,1,594595.258366613,45,B
68,4,25/4/90,26,f,69,The plate licked Jane,Non-sensible,edin_semantics,sem_emo_sem_emo,0.915430078632198,2,1,1,1,594596.916707505,96,B
68,4,25/4/90,26,f,70,The fat chewed Adam,Non-sensible,edin_semantics,sem_emo_sem_emo,1.67961614998057,2,1,1,1,594599.339476291,106,B
68,4,25/4/90,26,f,71,The office entered Joe,Non-sensible,edin_semantics,sem_emo_sem_emo,1.62084716174286,2,2,2,1,594601.703477691,133,B
68,4,25/4/90,26,f,72,Phil passed the towels,Sensible,edin_semantics,sem_emo_sem_emo,0.997640144894831,1,2,2,1,594603.444126789,43,B
68,4,25/4/90,26,f,73,Carl brushed the teeth,Sensible,edin_semantics,sem_emo_sem_emo,0.92619246779941,2,1,1,1,594605.114160478,72,B
68,4,25/4/90,26,f,74,The rope pulled Emma,Non-sensible,edin_semantics,sem_emo_sem_emo,0.997058680164628,2,1,1,1,594606.854799313,120,B
68,4,25/4/90,26,f,75,The carrots chopped Fred,Non-sensible,edin_semantics,sem_emo_sem_emo,0.821314578526653,2,1,1,1,594608.419048117,102,B
68,4,25/4/90,26,f,76,Ella watched the movie,Sensible,edin_semantics,sem_emo_sem_emo,1.27883173373993,2,2,2,1,594610.441960328,33,B
68,4,25/4/90,26,f,77,Max lent the bucket,Sensible,edin_semantics,sem_emo_sem_emo,1.87893988052383,1,2,2,1,594613.064654194,19,B
68,4,25/4/90,26,f,78,The kettle carried John,Non-sensible,edin_semantics,sem_emo_sem_emo,0.808894068817608,2,2,2,1,594614.617114947,105,B
68,4,25/4/90,26,f,79,Phil typed the letter,Sensible,edin_semantics,sem_emo_sem_emo,0.86723361350596,1,2,2,1,594616.228423586,49,B
68,4,25/4/90,26,f,80,The monitor punched Erin,Non-sensible,edin_semantics,sem_emo_sem_emo,0.631548934732564,2,2,2,1,594617.604446842,125,B
68,4,25/4/90,26,f,81,The shoes counted Lucy,Non-sensible,edin_semantics,sem_emo_sem_emo,1.00909336400218,1,2,2,1,594619.356849994,123,B
68,4,25/4/90,26,f,82,The report wrote Alex,Non-sensible,edin_semantics,sem_emo_sem_emo,0.914940019021742,1,2,2,1,594621.01518383,149,B
68,4,25/4/90,26,f,83,Mary iced the cake,Sensible,edin_semantics,sem_emo_sem_emo,1.12605885590892,2,1,1,1,594622.885216685,44,B
68,4,25/4/90,26,f,84,Sean read the book,Sensible,edin_semantics,sem_emo_sem_emo,1.03202898788732,1,1,1,1,594624.661118324,4,B
68,4,25/4/90,26,f,85,The candy sucked Sam,Non-sensible,edin_semantics,sem_emo_sem_emo,0.984866522834636,1,2,2,1,594626.389993483,87,B
68,4,25/4/90,26,f,86,Max kissed the mirror,Sensible,edin_semantics,sem_emo_sem_emo,0.879383756429888,1,2,2,1,594628.013029236,23,B
68,4,25/4/90,26,f,87,Matt pushed the trolley,Sensible,edin_semantics,sem_emo_sem_emo,1.26796318648849,2,1,1,1,594630.024191883,26,B
68,4,25/4/90,26,f,88,Lily dented the lorry,Sensible,edin_semantics,sem_emo_sem_emo,1.38469904300291,2,2,2,1,594632.152937407,71,B
68,4,25/4/90,26,f,89,Tim ate the ham,Sensible,edin_semantics,sem_emo_sem_emo,0.902672813390382,1,2,2,1,594633.799474212,67,B
68,4,25/4/90,26,f,90,Sam tidied the room,Sensible,edin_semantics,sem_emo_sem_emo,1.04450883064419,1,1,1,1,594635.587192767,2,B
68,4,25/4/90,26,f,91,Luke climbed the hill,Sensible,edin_semantics,sem_emo_sem_emo,0.750499039771967,2,1,1,1,594637.080844442,68,B
68,4,25/4/90,26,f,92,The opera watched Adam,Non-sensible,edin_semantics,sem_emo_sem_emo,1.09167322004214,1,1,1,1,594638.9155821,108,B
68,4,25/4/90,26,f,93,Will mashed the potatoes,Sensible,edin_semantics,sem_emo_sem_emo,1.13802843377925,2,1,1,1,594640.79736516,28,B
68,4,25/4/90,26,f,94,Kate built the house,Sensible,edin_semantics,sem_emo_sem_emo,0.996840911568142,2,1,1,1,594642.537968716,46,B
68,4,25/4/90,26,f,95,The message typed Eve,Non-sensible,edin_semantics,sem_emo_sem_emo,0.89184211101383,2,1,1,1,594644.172774879,124,B
68,4,25/4/90,26,f,96,The car lent Fred,Non-sensible,edin_semantics,sem_emo_sem_emo,0.86717043176759,1,1,1,1,594645.784086084,94,B
68,4,25/4/90,26,f,97,Jon jumped the fence,Sensible,edin_semantics,sem_emo_sem_emo,0.902187243802473,1,2,2,1,594647.430616795,17,B
68,4,25/4/90,26,f,98,The perfume sniffed Tim,Non-sensible,edin_semantics,sem_emo_sem_emo,1.44390998303425,2,2,2,1,594649.618222713,93,B
68,4,25/4/90,26,f,99,Phil chopped the herbs,Sensible,edin_semantics,sem_emo_sem_emo,0.891120171174407,1,2,2,1,594651.252929774,27,B
68,4,25/4/90,26,f,100,Andy grated the cheese,Sensible,edin_semantics,sem_emo_sem_emo,0.889943771413527,1,2,2,1,594652.887717977,65,B
68,4,25/4/90,26,f,101,The curtains measured Rob,Non-sensible,edin_semantics,sem_emo_sem_emo,0.997483633691445,1,1,1,1,594654.628408127,126,B
68,4,25/4/90,26,f,102,The church described Erin,Non-sensible,edin_semantics,sem_emo_sem_emo,1.00920786103234,2,2,2,1,594656.380810317,117,B
68,4,25/4/90,26,f,103,Amy hugged the tree,Sensible,edin_semantics,sem_emo_sem_emo,1.00928611657582,1,2,2,1,594658.1332093,11,B
68,4,25/4/90,26,f,104,The ice crushed Josh,Non-sensible,edin_semantics,sem_emo_sem_emo,1.60824672831222,2,2,2,1,594660.485452798,81,B
68,4,25/4/90,26,f,105,The carrots grated Tom,Non-sensible,edin_semantics,sem_emo_sem_emo,0.879949826630764,1,1,1,1,594662.108455196,140,B
68,4,25/4/90,26,f,106,The invite mailed Ian,Non-sensible,edin_semantics,sem_emo_sem_emo,1.31500313663855,2,2,2,1,594664.166670301,89,B
68,4,25/4/90,26,f,107,The bowl dented Ian,Non-sensible,edin_semantics,sem_emo_sem_emo,1.02088398032356,1,1,1,1,594665.930805378,146,B
68,4,25/4/90,26,f,108,Eve taught the lesson,Sensible,edin_semantics,sem_emo_sem_emo,0.855908040655777,2,2,2,1,594667.530305441,15,B
68,4,25/4/90,26,f,109,The bed sold Jay,Non-sensible,edin_semantics,sem_emo_sem_emo,0.938502008328214,2,2,2,1,594669.212175929,113,B
68,4,25/4/90,26,f,110,The nuts mixed Liam,Non-sensible,edin_semantics,sem_emo_sem_emo,0.820057998877019,1,2,2,1,594670.776405169,83,B
68,4,25/4/90,26,f,111,The onion sliced Liam,Non-sensible,edin_semantics,sem_emo_sem_emo,0.739126321277581,2,1,1,1,594672.258305677,78,B
68,4,25/4/90,26,f,112,The blanket stroked Ryan,Non-sensible,edin_semantics,sem_emo_sem_emo,1.07884892437141,1,1,1,1,594674.081277414,116,B
68,4,25/4/90,26,f,113,The sugar weighed Liz,Non-sensible,edin_semantics,sem_emo_sem_emo,1.03238883533049,2,2,2,1,594675.857225878,139,B
68,4,25/4/90,26,f,114,Jen searched the room,Sensible,edin_semantics,sem_emo_sem_emo,0.925822678022087,1,1,1,1,594677.52726117,10,B
68,4,25/4/90,26,f,115,Ben chewed the toffee,Sensible,edin_semantics,sem_emo_sem_emo,1.04388471017592,1,2,2,1,594679.314950539,31,B
68,4,25/4/90,26,f,116,Liz labeled the jar,Sensible,edin_semantics,sem_emo_sem_emo,2.13866538298316,2,2,2,1,594682.196464515,61,B
68,4,25/4/90,26,f,117,The lemon squeezed Jay,Non-sensible,edin_semantics,sem_emo_sem_emo,1.11475701630116,1,1,1,1,594684.054677247,76,B
68,4,25/4/90,26,f,118,The stairs climbed Ben,Non-sensible,edin_semantics,sem_emo_sem_emo,0.903405016288161,2,2,2,1,594685.70123105,143,B
68,4,25/4/90,26,f,119,The wallet carried Leo,Non-sensible,edin_semantics,sem_emo_sem_emo,1.25591599452309,2,1,1,1,594687.700621683,150,B
68,4,25/4/90,26,f,120,The button pushed Ian,Non-sensible,edin_semantics,sem_emo_sem_emo,0.948927962454036,2,2,2,1,594689.394201004,101,B
68,4,25/4/90,26,f,121,The hair brushed Dan,Non-sensible,edin_semantics,sem_emo_sem_emo,1.47837772313505,2,2,2,1,594691.617079027,147,B
68,4,25/4/90,26,f,122,The hair trimmed Bill,Non-sensible,edin_semantics,sem_emo_sem_emo,0.926525054033846,1,2,2,1,594693.287150239,107,B
68,4,25/4/90,26,f,123,Mike paid the bill,Sensible,edin_semantics,sem_emo_sem_emo,1.03216272802092,1,2,2,1,594695.063042257,59,B
68,4,25/4/90,26,f,124,Beth took the photo,Sensible,edin_semantics,sem_emo_sem_emo,1.02096993313171,1,2,2,1,594696.827277077,53,B
68,4,25/4/90,26,f,125,The salt passed Leo,Non-sensible,edin_semantics,sem_emo_sem_emo,1.09106866351794,2,1,1,1,594698.661970155,118,B
68,4,25/4/90,26,f,126,The pan washed Beth,Non-sensible,edin_semantics,sem_emo_sem_emo,1.17258757888339,2,1,1,1,594700.579017944,132,B
68,4,25/4/90,26,f,127,The problem solved Phil,Non-sensible,edin_semantics,sem_emo_sem_emo,1.06769140867982,2,2,1,0,594702.390235947,109,B
68,4,25/4/90,26,f,128,Erin posted the card,Sensible,edin_semantics,sem_emo_sem_emo,0.903098087641411,1,1,1,1,594704.036781412,36,B
68,4,25/4/90,26,f,129,Joe solved the puzzle,Sensible,edin_semantics,sem_emo_sem_emo,0.937748958705924,2,1,1,1,594705.718632336,34,B
68,4,25/4/90,26,f,130,The beer drank Jack,Non-sensible,edin_semantics,sem_emo_sem_emo,1.01959244231693,2,2,2,1,594707.482779279,135,B
68,4,25/4/90,26,f,131,John described the pen,Sensible,edin_semantics,sem_emo_sem_emo,0.879137443727814,1,1,1,1,594709.105817598,42,B
68,4,25/4/90,26,f,132,The donut iced Joe,Non-sensible,edin_semantics,sem_emo_sem_emo,1.03283463569824,1,2,2,1,594710.881778891,119,B
68,4,25/4/90,26,f,133,The rice stored Fred,Non-sensible,edin_semantics,sem_emo_sem_emo,0.938387832138687,2,2,2,1,594712.563601912,127,B
68,4,25/4/90,26,f,134,Joe wore the jumper,Sensible,edin_semantics,sem_emo_sem_emo,1.19685066142119,1,2,2,1,594714.504159734,25,B
68,4,25/4/90,26,f,135,The ticket took Tim,Non-sensible,edin_semantics,sem_emo_sem_emo,0.938408678863198,2,1,1,1,594716.185984038,128,B
68,4,25/4/90,26,f,136,Ryan entered the room,Sensible,edin_semantics,sem_emo_sem_emo,0.996739884722047,2,1,1,1,594717.92664789,58,B
68,4,25/4/90,26,f,137,Dan whisked the eggs,Sensible,edin_semantics,sem_emo_sem_emo,1.03250076645054,2,1,1,1,594719.70256813,62,B
68,4,25/4/90,26,f,138,The radio fixed Luke,Non-sensible,edin_semantics,sem_emo_sem_emo,0.737549021956511,2,1,1,1,594721.184465752,112,B
68,4,25/4/90,26,f,139,Kate lifted the box,Sensible,edin_semantics,sem_emo_sem_emo,1.20824005734175,2,2,2,1,594723.136807454,69,B
68,4,25/4/90,26,f,140,The desk wiped Lucy,Non-sensible,edin_semantics,sem_emo_sem_emo,1.2443745774217,2,2,2,1,594725.124432807,115,B
68,4,25/4/90,26,f,141,The hospital visited Tom,Non-sensible,edin_semantics,sem_emo_sem_emo,0.865077094524167,1,2,2,1,594726.735768387,91,B
68,4,25/4/90,26,f,142,Rob mailed the parcel,Sensible,edin_semantics,sem_emo_sem_emo,0.832521164207719,2,1,1,1,594728.311699083,14,B
68,4,25/4/90,26,f,143,The hedge jumped Sara,Non-sensible,edin_semantics,sem_emo_sem_emo,1.07960902992636,1,1,1,1,594730.134687176,92,B
68,4,25/4/90,26,f,144,The cream whisked Tom,Non-sensible,edin_semantics,sem_emo_sem_emo,0.950374087318778,2,2,2,1,594731.828267139,137,B
68,4,25/4/90,26,f,145,Jeff watered the garden,Sensible,edin_semantics,sem_emo_sem_emo,0.938080261927098,2,1,1,1,594733.510091764,54,B
68,4,25/4/90,26,f,146,Josh ironed the shirt,Sensible,edin_semantics,sem_emo_sem_emo,2.69053633301519,2,2,2,1,594736.944355463,55,B
68,4,25/4/90,26,f,147,Matt drank the juice,Sensible,edin_semantics,sem_emo_sem_emo,0.738464035093784,1,1,1,1,594738.426258215,60,B
68,4,25/4/90,26,f,148,The socks knitted Ryan,Non-sensible,edin_semantics,sem_emo_sem_emo,1.03218870633282,2,2,2,1,594740.202164024,141,B
68,4,25/4/90,26,f,149,Dan carried the folder,Sensible,edin_semantics,sem_emo_sem_emo,0.926370146335103,2,1,1,1,594741.872206051,30,B
68,4,25/4/90,26,f,150,Leah sucked the lolly,Sensible,edin_semantics,sem_emo_sem_emo,1.14911218383349,2,1,1,1,594743.765795763,12,B
68,4,25/4/90,26,f,151,The tomato sliced Liz,Non-sensible,edin_semantics,sem_emo_sem_emo,0.931458684266545,1,2,2,1,594764.453586095,3,A
68,4,25/4/90,26,f,152,The story wrote Ewan,Non-sensible,edin_semantics,sem_emo_sem_emo,0.819574033026583,2,1,1,1,594766.017783263,74,A
68,4,25/4/90,26,f,153,Ian pushed the button,Sensible,edin_semantics,sem_emo_sem_emo,1.03184104617685,1,2,2,1,594767.793736538,101,A
68,4,25/4/90,26,f,154,Max searched the internet,Sensible,edin_semantics,sem_emo_sem_emo,1.28993023699149,2,2,2,1,594769.828397672,85,A
68,4,25/4/90,26,f,155,Andy pulled the rope,Sensible,edin_semantics,sem_emo_sem_emo,0.725506320013665,1,1,1,1,594771.298530976,148,A
68,4,25/4/90,26,f,156,The thread measured Amy,Non-sensible,edin_semantics,sem_emo_sem_emo,1.0432355736848,2,2,2,1,594773.086237664,51,A
68,4,25/4/90,26,f,157,The room searched Jen,Non-sensible,edin_semantics,sem_emo_sem_emo,1.13723753916565,2,1,1,1,594774.96799699,10,A
68,4,25/4/90,26,f,158,The movie watched Ella,Non-sensible,edin_semantics,sem_emo_sem_emo,0.83151506667491,2,2,2,1,594776.543986699,33,A
68,4,25/4/90,26,f,159,The flour weighed Jen,Non-sensible,edin_semantics,sem_emo_sem_emo,0.890564363915473,2,1,1,1,594778.178779072,64,A
68,4,25/4/90,26,f,160,Dan brushed the hair,Sensible,edin_semantics,sem_emo_sem_emo,1.12564608966932,1,2,2,1,594780.048802305,147,A
68,4,25/4/90,26,f,161,Amy lifted the crate,Sensible,edin_semantics,sem_emo_sem_emo,1.16142653534189,2,1,1,1,594781.954093794,144,A
68,4,25/4/90,26,f,162,The hill climbed Luke,Non-sensible,edin_semantics,sem_emo_sem_emo,1.1266194737982,2,1,1,1,594783.824157437,68,A
68,4,25/4/90,26,f,163,Jane licked the plate,Sensible,edin_semantics,sem_emo_sem_emo,1.00855808297638,2,1,1,1,594785.576490352,96,A
68,4,25/4/90,26,f,164,The mirror kissed Max,Non-sensible,edin_semantics,sem_emo_sem_emo,0.832369784708135,2,2,2,1,594787.152518547,23,A
68,4,25/4/90,26,f,165,Max kicked the door,Sensible,edin_semantics,sem_emo_sem_emo,1.02040225942619,2,1,1,1,594788.916648493,114,A
68,4,25/4/90,26,f,166,The lesson taught Eve,Non-sensible,edin_semantics,sem_emo_sem_emo,0.867798721417785,2,2,2,1,594790.527909023,15,A
68,4,25/4/90,26,f,167,The shelf dusted Jake,Non-sensible,edin_semantics,sem_emo_sem_emo,1.20861850655638,1,2,2,1,594792.480251688,47,A
68,4,25/4/90,26,f,168,Tom visited the hospital,Sensible,edin_semantics,sem_emo_sem_emo,0.926524733193219,1,2,2,1,594794.150338295,91,A
68,4,25/4/90,26,f,169,Luke read the poster,Sensible,edin_semantics,sem_emo_sem_emo,0.914602621924132,1,2,2,1,594795.808681752,79,A
68,4,25/4/90,26,f,170,The bowl scrubbed Liz,Non-sensible,edin_semantics,sem_emo_sem_emo,0.890428378828801,2,1,1,1,594797.443460334,56,A
68,4,25/4/90,26,f,171,Leo carried the wallet,Sensible,edin_semantics,sem_emo_sem_emo,0.773646017885767,1,1,1,1,594798.96064353,150,A
68,4,25/4/90,26,f,172,The milk sniffed Phil,Non-sensible,edin_semantics,sem_emo_sem_emo,0.926173866027966,2,1,1,1,594800.630712177,18,A
68,4,25/4/90,26,f,173,Jay painted the portrait,Sensible,edin_semantics,sem_emo_sem_emo,0.996986197424121,1,1,1,1,594802.371405855,110,A
68,4,25/4/90,26,f,174,The photo took Beth,Non-sensible,edin_semantics,sem_emo_sem_emo,1.43203181016725,1,2,2,1,594804.547140656,53,A
68,4,25/4/90,26,f,175,The juice drank Matt,Non-sensible,edin_semantics,sem_emo_sem_emo,0.889928056159988,2,1,1,1,594806.181932387,60,A
68,4,25/4/90,26,f,176,Adam chewed the fat,Sensible,edin_semantics,sem_emo_sem_emo,1.20708707033191,2,1,1,1,594808.134268637,106,A
68,4,25/4/90,26,f,177,Joe iced the donut,Sensible,edin_semantics,sem_emo_sem_emo,1.277973167249,1,2,2,1,594810.157214845,119,A
68,4,25/4/90,26,f,178,Ben climbed the stairs,Sensible,edin_semantics,sem_emo_sem_emo,0.983935473719612,2,2,2,1,594811.886077496,143,A
68,4,25/4/90,26,f,179,Luke fixed the radio,Sensible,edin_semantics,sem_emo_sem_emo,1.59592724544927,2,1,1,1,594814.226552508,112,A
68,4,25/4/90,26,f,180,Ian labeled the box,Sensible,edin_semantics,sem_emo_sem_emo,2.19613417366054,1,1,1,1,594817.16679891,136,A
68,4,25/4/90,26,f,181,The lever pulled Hugh,Non-sensible,edin_semantics,sem_emo_sem_emo,1.58397145848721,2,2,2,1,594819.495517301,45,A
68,4,25/4/90,26,f,182,The pill swallowed Luke,Non-sensible,edin_semantics,sem_emo_sem_emo,1.0073204258224,1,1,1,1,594821.247905059,22,A
68,4,25/4/90,26,f,183,Liam mixed the nuts,Sensible,edin_semantics,sem_emo_sem_emo,1.14912212616764,2,2,2,1,594823.141456606,83,A
68,4,25/4/90,26,f,184,The pen described John,Non-sensible,edin_semantics,sem_emo_sem_emo,1.39611024805345,2,1,1,1,594825.281990822,42,A
68,4,25/4/90,26,f,185,Eve ironed the trousers,Sensible,edin_semantics,sem_emo_sem_emo,0.995851491461508,1,1,1,1,594827.022625488,130,A
68,4,25/4/90,26,f,186,Zoe paid the debt,Sensible,edin_semantics,sem_emo_sem_emo,1.54907684051432,2,1,1,1,594829.316015969,134,A
68,4,25/4/90,26,f,187,The puzzle solved Joe,Non-sensible,edin_semantics,sem_emo_sem_emo,0.855240943841636,2,1,1,1,594830.915576006,34,A
68,4,25/4/90,26,f,188,Ryan knitted the socks,Sensible,edin_semantics,sem_emo_sem_emo,0.890442169737071,1,2,2,1,594832.550328289,141,A
68,4,25/4/90,26,f,189,The herbs chopped Phil,Non-sensible,edin_semantics,sem_emo_sem_emo,1.61962938925717,2,2,2,1,594834.914320709,27,A
68,4,25/4/90,26,f,190,Lucy counted the shoes,Sensible,edin_semantics,sem_emo_sem_emo,0.938014514511451,1,2,2,1,594836.596155919,123,A
68,4,25/4/90,26,f,191,Jay squeezed the lemon,Sensible,edin_semantics,sem_emo_sem_emo,0.96132153167855,1,1,1,1,594838.301497953,76,A
68,4,25/4/90,26,f,192,Joe entered the office,Sensible,edin_semantics,sem_emo_sem_emo,0.961667267489247,1,2,2,1,594840.006896114,133,A
68,4,25/4/90,26,f,193,Erin described the church,Sensible,edin_semantics,sem_emo_sem_emo,1.07927163282875,2,2,2,1,594841.829892225,117,A
68,4,25/4/90,26,f,194,Fred served the dessert,Sensible,edin_semantics,sem_emo_sem_emo,1.16141049936414,2,2,2,1,594843.735126947,145,A
68,4,25/4/90,26,f,195,The lolly sucked Leah,Non-sensible,edin_semantics,sem_emo_sem_emo,0.820621182676405,2,1,1,1,594845.299378638,12,A
68,4,25/4/90,26,f,196,The tree hugged Amy,Non-sensible,edin_semantics,sem_emo_sem_emo,0.902913673897274,1,2,2,1,594846.945920254,11,A
68,4,25/4/90,26,f,197,Josh taught the rules,Sensible,edin_semantics,sem_emo_sem_emo,0.679624167853035,2,1,1,1,594848.368995326,90,A
68,4,25/4/90,26,f,198,The letter typed Phil,Non-sensible,edin_semantics,sem_emo_sem_emo,0.773780078743584,1,2,2,1,594849.886211236,49,A
68,4,25/4/90,26,f,199,Beth washed the pan,Sensible,edin_semantics,sem_emo_sem_emo,0.832480112207122,2,1,1,1,594851.462175287,132,A
68,4,25/4/90,26,f,200,The papers filed Lara,Non-sensible,edin_semantics,sem_emo_sem_emo,2.9140054420568,2,1,1,1,594855.119875061,24,A
68,4,25/4/90,26,f,201,Ian mailed the invite,Sensible,edin_semantics,sem_emo_sem_emo,0.844041093136184,1,2,2,1,594856.707636142,89,A
68,4,25/4/90,26,f,202,Tim took the ticket,Sensible,edin_semantics,sem_emo_sem_emo,0.950086081167683,1,1,1,1,594858.401208087,128,A
68,4,25/4/90,26,f,203,The card posted Erin,Non-sensible,edin_semantics,sem_emo_sem_emo,1.24370299058501,2,1,1,1,594860.388844345,36,A
68,4,25/4/90,26,f,204,The plans cancelled Ian,Non-sensible,edin_semantics,sem_emo_sem_emo,0.913828083896078,1,2,2,1,594862.047148353,7,A
68,4,25/4/90,26,f,205,The house built Kate,Non-sensible,edin_semantics,sem_emo_sem_emo,0.820065054809675,1,1,1,1,594863.611397478,46,A
68,4,25/4/90,26,f,206,Liam sliced the onion,Sensible,edin_semantics,sem_emo_sem_emo,0.702793275704607,1,1,1,1,594865.058017221,78,A
68,4,25/4/90,26,f,207,Sam sucked the candy,Sensible,edin_semantics,sem_emo_sem_emo,1.13652297563385,2,2,2,1,594866.939791622,87,A
68,4,25/4/90,26,f,208,The floor cleaned Tim,Non-sensible,edin_semantics,sem_emo_sem_emo,2.06637838250026,2,2,2,1,594869.750695962,5,A
68,4,25/4/90,26,f,209,Sara jumped the hedge,Sensible,edin_semantics,sem_emo_sem_emo,0.866216932190582,1,1,1,1,594871.361964831,92,A
68,4,25/4/90,26,f,210,The number dialed Tom,Non-sensible,edin_semantics,sem_emo_sem_emo,0.867179091088474,1,2,2,1,594872.973237549,63,A
68,4,25/4/90,26,f,211,Tom offered the sweets,Sensible,edin_semantics,sem_emo_sem_emo,1.19652545172721,1,1,2,0,594874.913812048,84,A
68,4,25/4/90,26,f,212,The toffee chewed Ben,Non-sensible,edin_semantics,sem_emo_sem_emo,0.820365248364396,1,2,2,1,594876.478025573,31,A
68,4,25/4/90,26,f,213,Ian filed the report,Sensible,edin_semantics,sem_emo_sem_emo,0.984874220215715,2,2,2,1,594878.20692671,99,A
68,4,25/4/90,26,f,214,Ryan stroked the blanket,Sensible,edin_semantics,sem_emo_sem_emo,0.807517219451256,1,1,1,1,594879.759389388,116,A
68,4,25/4/90,26,f,215,The eggs whisked Dan,Non-sensible,edin_semantics,sem_emo_sem_emo,1.01886312582064,2,1,1,1,594881.523537294,62,A
68,4,25/4/90,26,f,216,The cake iced Mary,Non-sensible,edin_semantics,sem_emo_sem_emo,1.12532023852691,2,1,1,1,594883.393563734,44,A
68,4,25/4/90,26,f,217,Kate wore the dress,Sensible,edin_semantics,sem_emo_sem_emo,0.948548871907406,1,1,1,1,594885.087143376,100,A
68,4,25/4/90,26,f,218,The garlic crushed Erin,Non-sensible,edin_semantics,sem_emo_sem_emo,0.748846050701104,1,1,1,1,594886.58084797,6,A
68,4,25/4/90,26,f,219,The sofa sold Carl,Non-sensible,edin_semantics,sem_emo_sem_emo,1.3136759987101,1,1,1,1,594888.638979047,38,A
68,4,25/4/90,26,f,220,Phil cancelled the party,Sensible,edin_semantics,sem_emo_sem_emo,0.901560878381133,1,1,1,1,594890.285553697,82,A
68,4,25/4/90,26,f,221,Fred lent the car,Sensible,edin_semantics,sem_emo_sem_emo,0.795916148461401,1,1,1,1,594891.826213571,94,A
68,4,25/4/90,26,f,222,The ham ate Tim,Non-sensible,edin_semantics,sem_emo_sem_emo,0.902722204220481,2,2,2,1,594893.473013687,67,A
68,4,25/4/90,26,f,223,Adam watched the opera,Sensible,edin_semantics,sem_emo_sem_emo,0.866398780141026,1,1,1,1,594895.084093332,108,A
68,4,25/4/90,26,f,224,The spoon licked Will,Non-sensible,edin_semantics,sem_emo_sem_emo,0.972295595798641,2,2,2,1,594896.801216041,21,A
68,4,25/4/90,26,f,225,The coins polished Jon,Non-sensible,edin_semantics,sem_emo_sem_emo,1.04298188444227,2,2,2,1,594898.588899316,29,A
68,4,25/4/90,26,f,226,Bill trimmed the hair,Sensible,edin_semantics,sem_emo_sem_emo,1.10186921828426,2,2,2,1,594900.435399046,107,A
68,4,25/4/90,26,f,227,Josh crushed the ice,Sensible,edin_semantics,sem_emo_sem_emo,0.87843602988869,1,2,2,1,594902.058436081,81,A
68,4,25/4/90,26,f,228,The bucket lent Max,Non-sensible,edin_semantics,sem_emo_sem_emo,0.76055327989161,1,2,2,1,594903.563821926,19,A
68,4,25/4/90,26,f,229,The garden watered Jeff,Non-sensible,edin_semantics,sem_emo_sem_emo,0.890455639921129,2,1,1,1,594905.198621355,54,A
68,4,25/4/90,26,f,230,The ball squeezed Josh,Non-sensible,edin_semantics,sem_emo_sem_emo,0.796410377486609,2,2,2,1,594906.739345694,1,A
68,4,25/4/90,26,f,231,The handle pulled Tim,Non-sensible,edin_semantics,sem_emo_sem_emo,1.11368292628322,1,2,2,1,594908.597579593,73,A
68,4,25/4/90,26,f,232,The picture painted Ryan,Non-sensible,edin_semantics,sem_emo_sem_emo,0.925278416718356,1,2,2,1,594910.267657861,35,A
68,4,25/4/90,26,f,233,The trolley pushed Matt,Non-sensible,edin_semantics,sem_emo_sem_emo,0.925757571822032,2,1,1,1,594911.937757297,26,A
68,4,25/4/90,26,f,234,Rose built the shed,Sensible,edin_semantics,sem_emo_sem_emo,0.784119117888622,1,2,2,1,594913.466654779,121,A
68,4,25/4/90,26,f,235,The gun carried Ryan,Non-sensible,edin_semantics,sem_emo_sem_emo,0.878252257476561,1,2,2,1,594915.089732545,75,A
68,4,25/4/90,26,f,236,The jar labeled Liz,Non-sensible,edin_semantics,sem_emo_sem_emo,0.772476353333332,1,2,2,1,594916.606900668,61,A
68,4,25/4/90,26,f,237,The wall punched Jane,Non-sensible,edin_semantics,sem_emo_sem_emo,0.795729168923572,1,1,1,1,594918.147608329,50,A
68,4,25/4/90,26,f,238,The fruits mixed Jack,Non-sensible,edin_semantics,sem_emo_sem_emo,0.961066880379803,2,1,1,1,594919.852994303,8,A
68,4,25/4/90,26,f,239,Erin tidied the garage,Sensible,edin_semantics,sem_emo_sem_emo,0.631845279713161,2,2,2,1,594921.229020766,77,A
68,4,25/4/90,26,f,240,Hugh dialed the hotline,Sensible,edin_semantics,sem_emo_sem_emo,0.809090028516948,2,1,1,1,594922.781432129,138,A
68,4,25/4/90,26,f,241,Hugh kissed the rose,Sensible,edin_semantics,sem_emo_sem_emo,0.797147070523351,1,1,1,1,594924.3221709,98,A
68,4,25/4/90,26,f,242,The sheets counted Bill,Non-sensible,edin_semantics,sem_emo_sem_emo,0.691323699778877,1,1,1,1,594925.757020874,48,A
68,4,25/4/90,26,f,243,The bushes trimmed Jon,Non-sensible,edin_semantics,sem_emo_sem_emo,0.703031249693595,2,1,1,1,594927.203683273,32,A
68,4,25/4/90,26,f,244,The box lifted Kate,Non-sensible,edin_semantics,sem_emo_sem_emo,0.867530920542777,1,2,2,1,594928.814904355,69,A
68,4,25/4/90,26,f,245,Alex wrote the report,Sensible,edin_semantics,sem_emo_sem_emo,0.761757902801037,2,2,2,1,594930.320338629,149,A
68,4,25/4/90,26,f,246,The parcel mailed Rob,Non-sensible,edin_semantics,sem_emo_sem_emo,0.949827901902609,1,1,1,1,594932.013921478,14,A
68,4,25/4/90,26,f,247,Josh scrubbed the pot,Sensible,edin_semantics,sem_emo_sem_emo,0.878304855548777,1,2,2,1,594933.636952099,131,A
68,4,25/4/90,26,f,248,The folder carried Dan,Non-sensible,edin_semantics,sem_emo_sem_emo,0.784390125889331,2,1,1,1,594935.165900574,30,A
68,4,25/4/90,26,f,249,The money offered Matt,Non-sensible,edin_semantics,sem_emo_sem_emo,0.94910692400299,1,2,2,1,594936.859496573,9,A
68,4,25/4/90,26,f,250,Anna polished the trophy,Sensible,edin_semantics,sem_emo_sem_emo,0.7134421300143,1,1,1,1,594938.317878709,104,A
68,4,25/4/90,26,f,251,The bike kicked Matt,Non-sensible,edin_semantics,sem_emo_sem_emo,1.07900415267795,2,2,2,1,594940.140847239,39,A
68,4,25/4/90,26,f,252,Erin punched the monitor,Sensible,edin_semantics,sem_emo_sem_emo,1.82021290645935,2,2,2,1,594942.704789435,125,A
68,4,25/4/90,26,f,253,Mike ate the steak,Sensible,edin_semantics,sem_emo_sem_emo,0.679212043178268,1,1,1,1,594944.127873488,142,A
68,4,25/4/90,26,f,254,Alex dusted the house,Sensible,edin_semantics,sem_emo_sem_emo,1.07941339095123,2,1,1,1,594945.950863185,122,A
68,4,25/4/90,26,f,255,Liz weighed the sugar,Sensible,edin_semantics,sem_emo_sem_emo,0.796839821035974,1,2,2,1,594947.491530436,139,A
68,4,25/4/90,26,f,256,The fence jumped Jon,Non-sensible,edin_semantics,sem_emo_sem_emo,0.808705485775135,2,2,2,1,594949.043982209,17,A
68,4,25/4/90,26,f,257,John carried the kettle,Sensible,edin_semantics,sem_emo_sem_emo,0.902864282950759,1,2,2,1,594950.690576102,105,A
68,4,25/4/90,26,f,258,Tom grated the carrots,Sensible,edin_semantics,sem_emo_sem_emo,0.726079446030781,2,1,1,1,594952.160694332,140,A
68,4,25/4/90,26,f,259,The table wiped Beth,Non-sensible,edin_semantics,sem_emo_sem_emo,0.902987760026008,2,1,1,1,594953.807251984,40,A
68,4,25/4/90,26,f,260,The room entered Ryan,Non-sensible,edin_semantics,sem_emo_sem_emo,0.796962977387011,2,1,1,1,594955.347968305,58,A
68,4,25/4/90,26,f,261,The wine stored Leo,Non-sensible,edin_semantics,sem_emo_sem_emo,0.902781216660514,2,1,1,1,594956.994499979,52,A
68,4,25/4/90,26,f,262,The scarf knitted Tom,Non-sensible,edin_semantics,sem_emo_sem_emo,0.655960510484874,1,1,1,1,594958.394361043,66,A
68,4,25/4/90,26,f,263,The museum visited Mary,Non-sensible,edin_semantics,sem_emo_sem_emo,0.748172860243358,1,1,1,1,594959.88773241,16,A
68,4,25/4/90,26,f,264,Jay sold the bed,Sensible,edin_semantics,sem_emo_sem_emo,3.33672964747529,2,2,2,1,594963.968844652,113,A
68,4,25/4/90,26,f,265,Leo passed the salt,Sensible,edin_semantics,sem_emo_sem_emo,1.21951944648754,2,1,1,1,594965.932942013,118,A
68,4,25/4/90,26,f,266,Jack posted the gift,Sensible,edin_semantics,sem_emo_sem_emo,0.725999907590449,2,2,2,1,594967.403108671,111,A
68,4,25/4/90,26,f,267,Emma pulled the rope,Sensible,edin_semantics,sem_emo_sem_emo,0.855890721781179,1,1,1,1,594969.002597508,120,A
68,4,25/4/90,26,f,268,Phil solved the problem,Sensible,edin_semantics,sem_emo_sem_emo,0.902329964097589,2,2,2,1,594970.649133031,109,A
68,4,25/4/90,26,f,269,Fred chopped the carrots,Sensible,edin_semantics,sem_emo_sem_emo,0.844031150802039,1,1,1,1,594972.236886415,102,A
68,4,25/4/90,26,f,270,The teeth brushed Carl,Non-sensible,edin_semantics,sem_emo_sem_emo,0.98512053291779,2,1,1,1,594973.965764782,72,A
68,4,25/4/90,26,f,271,Kate hugged the pillow,Sensible,edin_semantics,sem_emo_sem_emo,1.09091824607458,2,1,1,1,594975.800521683,86,A
68,4,25/4/90,26,f,272,Rob measured the curtains,Sensible,edin_semantics,sem_emo_sem_emo,0.890825750422664,2,1,1,1,594977.435295453,126,A
68,4,25/4/90,26,f,273,Ella mashed the turnip,Sensible,edin_semantics,sem_emo_sem_emo,1.05566153547261,1,2,2,1,594979.234760685,103,A
68,4,25/4/90,26,f,274,The towels passed Phil,Non-sensible,edin_semantics,sem_emo_sem_emo,1.03225285024382,2,2,2,1,594981.010683813,43,A
68,4,25/4/90,26,f,275,The cheese grated Andy,Non-sensible,edin_semantics,sem_emo_sem_emo,0.750056126038544,1,2,2,1,594982.504351524,65,A
68,4,25/4/90,26,f,276,The book read Sean,Non-sensible,edin_semantics,sem_emo_sem_emo,1.20868778205477,1,1,1,1,594984.456674625,4,A
68,4,25/4/90,26,f,277,The paper cut Jon,Non-sensible,edin_semantics,sem_emo_sem_emo,0.973518499755301,2,1,1,1,594986.173774562,20,A
68,4,25/4/90,26,f,278,Fred stored the rice,Sensible,edin_semantics,sem_emo_sem_emo,1.3729504410876,2,2,2,1,594988.290793294,127,A
68,4,25/4/90,26,f,279,Tom whisked the cream,Sensible,edin_semantics,sem_emo_sem_emo,1.03229229873978,2,2,2,1,594990.066710969,137,A
68,4,25/4/90,26,f,280,The bill paid Mike,Non-sensible,edin_semantics,sem_emo_sem_emo,0.997068622498773,2,2,2,1,594991.807368726,59,A
68,4,25/4/90,26,f,281,The room tidied Sam,Non-sensible,edin_semantics,sem_emo_sem_emo,0.90122989565134,1,1,1,1,594993.453898155,2,A
68,4,25/4/90,26,f,282,The jumper wore Joe,Non-sensible,edin_semantics,sem_emo_sem_emo,0.936743823345751,1,2,2,1,594995.135739137,25,A
68,4,25/4/90,26,f,283,The lorry dented Lily,Non-sensible,edin_semantics,sem_emo_sem_emo,1.03214797494002,1,2,2,1,594996.9116783,71,A
68,4,25/4/90,26,f,284,The laptop fixed Jen,Non-sensible,edin_semantics,sem_emo_sem_emo,1.16153814573772,1,2,2,1,594998.816915909,37,A
68,4,25/4/90,26,f,285,Tim sniffed the perfume,Sensible,edin_semantics,sem_emo_sem_emo,1.38547807116993,2,2,2,1,595000.945747386,93,A
68,4,25/4/90,26,f,286,The dishes washed Mark,Non-sensible,edin_semantics,sem_emo_sem_emo,1.49078957329039,2,2,2,1,595003.180305376,57,A
68,4,25/4/90,26,f,287,The potatoes mashed Will,Non-sensible,edin_semantics,sem_emo_sem_emo,1.1259187014075,1,1,1,1,595005.050394357,28,A
68,4,25/4/90,26,f,288,Owen swallowed the gum,Sensible,edin_semantics,sem_emo_sem_emo,1.02036986674648,1,2,2,1,595006.814528792,97,A
68,4,25/4/90,26,f,289,The fur stroked Rob,Non-sensible,edin_semantics,sem_emo_sem_emo,1.12655597133562,2,2,2,1,595008.684538876,41,A
68,4,25/4/90,26,f,290,Lucy cut the ribbon,Sensible,edin_semantics,sem_emo_sem_emo,1.46703483152669,2,2,2,1,595010.895611529,95,A
68,4,25/4/90,26,f,291,Ben got the radio,Sensible,edin_semantics,sem_emo_sem_emo,1.05577891890425,1,1,1,1,595012.695055273,88,A
68,4,25/4/90,26,f,292,The dish served Kate,Non-sensible,edin_semantics,sem_emo_sem_emo,0.796578113804571,1,1,1,1,595014.23578346,70,A
68,4,25/4/90,26,f,293,Ian dented the bowl,Sensible,edin_semantics,sem_emo_sem_emo,3.10236537153833,2,1,1,1,595018.08163662,146,A
68,4,25/4/90,26,f,294,Lucy wiped the desk,Sensible,edin_semantics,sem_emo_sem_emo,1.23198934702668,1,2,2,1,595020.057500863,115,A
68,4,25/4/90,26,f,295,Jack cleaned the bath,Sensible,edin_semantics,sem_emo_sem_emo,0.902895392850041,2,1,1,1,595021.704090587,80,A
68,4,25/4/90,26,f,296,The kettle got Lily,Non-sensible,edin_semantics,sem_emo_sem_emo,1.20827148784883,2,2,2,1,595023.65641946,13,A
68,4,25/4/90,26,f,297,Luke watered the plants,Sensible,edin_semantics,sem_emo_sem_emo,1.37267911224626,1,2,2,1,595025.773413496,129,A
68,4,25/4/90,26,f,298,The shirt ironed Josh,Non-sensible,edin_semantics,sem_emo_sem_emo,1.21989372628741,1,2,2,1,595027.737501876,55,A
68,4,25/4/90,26,f,299,Eve typed the message,Sensible,edin_semantics,sem_emo_sem_emo,1.23187869868707,2,1,1,1,595029.713360988,124,A
68,4,25/4/90,26,f,300,Jack drank the beer,Sensible,edin_semantics,sem_emo_sem_emo,2.01998307881877,2,2,2,1,595032.477223132,135,A
