subject_column,AssignedList_column,subject_dob_column,subject_age_column,subject_gender_column,trialnum_column,Stim_column,Type_column,Experiment_column,OrderGroup_column,ReactionTime_column,StimSide_column,StimPosition_column,Response_column,Valid_column,TrialEndSecs_column,PairID_column,List_column
69,1,2/5/95,21,f,1,Fred chopped the carrots,Sensible,edin_semantics,emo_sem_emo_sem,1.04961597034708,2,1,1,1,598290.191988552,102,A
69,1,2/5/95,21,f,2,The fence jumped Jon,Non-sensible,edin_semantics,emo_sem_emo_sem,1.63220801367424,1,2,2,1,598292.567716425,17,A
69,1,2/5/95,21,f,3,Max kicked the door,Sensible,edin_semantics,emo_sem_emo_sem,1.18475472007412,1,1,1,1,598294.496521475,114,A
69,1,2/5/95,21,f,4,The story wrote Ewan,Non-sensible,edin_semantics,emo_sem_emo_sem,1.05599829123821,1,1,1,1,598296.295966181,74,A
69,1,2/5/95,21,f,5,Fred stored the rice,Sensible,edin_semantics,emo_sem_emo_sem,1.37356878863648,2,2,1,0,598298.41296182,127,A
69,1,2/5/95,21,f,6,The lolly sucked Leah,Non-sensible,edin_semantics,emo_sem_emo_sem,0.996791520738043,2,1,1,1,598300.153628879,12,A
69,1,2/5/95,21,f,7,The kettle got Lily,Non-sensible,edin_semantics,emo_sem_emo_sem,0.820743056130596,2,2,2,1,598301.717847214,13,A
69,1,2/5/95,21,f,8,Sara jumped the hedge,Sensible,edin_semantics,emo_sem_emo_sem,0.785308987717144,2,1,1,1,598303.246795369,92,A
69,1,2/5/95,21,f,9,Joe iced the donut,Sensible,edin_semantics,emo_sem_emo_sem,1.00896828342229,2,2,2,1,598304.999191466,119,A
69,1,2/5/95,21,f,10,The milk sniffed Phil,Non-sensible,edin_semantics,emo_sem_emo_sem,0.973551213159226,1,1,1,1,598306.716295573,18,A
69,1,2/5/95,21,f,11,Luke read the poster,Sensible,edin_semantics,emo_sem_emo_sem,0.726328003802337,2,2,2,1,598308.186424707,79,A
69,1,2/5/95,21,f,12,The bucket lent Max,Non-sensible,edin_semantics,emo_sem_emo_sem,1.0327143658651,1,2,2,1,598309.962337892,19,A
69,1,2/5/95,21,f,13,The number dialed Tom,Non-sensible,edin_semantics,emo_sem_emo_sem,0.985946065164171,2,2,2,1,598311.691224918,63,A
69,1,2/5/95,21,f,14,Ian dented the bowl,Sensible,edin_semantics,emo_sem_emo_sem,1.13828533014748,2,1,1,1,598313.573005092,146,A
69,1,2/5/95,21,f,15,Andy pulled the rope,Sensible,edin_semantics,emo_sem_emo_sem,1.16230049636215,1,1,1,1,598315.478369064,148,A
69,1,2/5/95,21,f,16,The room entered Ryan,Non-sensible,edin_semantics,emo_sem_emo_sem,0.962521985289641,2,1,1,1,598317.18368512,58,A
69,1,2/5/95,21,f,17,Adam chewed the fat,Sensible,edin_semantics,emo_sem_emo_sem,1.12698060413823,2,1,1,1,598319.053704184,106,A
69,1,2/5/95,21,f,18,The shirt ironed Josh,Non-sensible,edin_semantics,emo_sem_emo_sem,1.0920093342429,1,2,2,1,598320.888434786,55,A
69,1,2/5/95,21,f,19,The dish served Kate,Non-sensible,edin_semantics,emo_sem_emo_sem,1.19742218381725,1,1,1,1,598322.829007681,70,A
69,1,2/5/95,21,f,20,Joe entered the office,Sensible,edin_semantics,emo_sem_emo_sem,0.997586905374192,1,2,2,1,598324.569638818,133,A
69,1,2/5/95,21,f,21,Ryan knitted the socks,Sensible,edin_semantics,emo_sem_emo_sem,1.29189143772237,1,2,2,1,598326.604312461,141,A
69,1,2/5/95,21,f,22,Amy lifted the crate,Sensible,edin_semantics,emo_sem_emo_sem,1.38606274302583,2,1,1,1,598328.73308236,144,A
69,1,2/5/95,21,f,23,The card posted Erin,Non-sensible,edin_semantics,emo_sem_emo_sem,1.12694917363115,2,1,1,1,598330.603101423,36,A
69,1,2/5/95,21,f,24,The folder carried Dan,Non-sensible,edin_semantics,emo_sem_emo_sem,1.03247158112936,2,1,1,1,598332.379013005,30,A
69,1,2/5/95,21,f,25,The ball squeezed Josh,Non-sensible,edin_semantics,emo_sem_emo_sem,1.07956316706259,1,2,2,1,598334.20196646,1,A
69,1,2/5/95,21,f,26,The parcel mailed Rob,Non-sensible,edin_semantics,emo_sem_emo_sem,0.891638454049826,2,1,1,1,598335.836801489,14,A
69,1,2/5/95,21,f,27,Phil cancelled the party,Sensible,edin_semantics,emo_sem_emo_sem,0.938805088400841,2,1,1,1,598337.518623227,82,A
69,1,2/5/95,21,f,28,The tree hugged Amy,Non-sensible,edin_semantics,emo_sem_emo_sem,1.27987054479308,2,2,2,1,598339.541532873,11,A
69,1,2/5/95,21,f,29,Lucy cut the ribbon,Sensible,edin_semantics,emo_sem_emo_sem,0.938701495993882,2,2,2,1,598341.223345953,95,A
69,1,2/5/95,21,f,30,The fur stroked Rob,Non-sensible,edin_semantics,emo_sem_emo_sem,1.12667110969778,1,2,2,1,598343.093363092,41,A
69,1,2/5/95,21,f,31,The photo took Beth,Non-sensible,edin_semantics,emo_sem_emo_sem,1.46810026210733,2,2,2,1,598345.304443122,53,A
69,1,2/5/95,21,f,32,Rob measured the curtains,Sensible,edin_semantics,emo_sem_emo_sem,1.35044233652297,2,1,1,1,598347.39792937,126,A
69,1,2/5/95,21,f,33,Ben climbed the stairs,Sensible,edin_semantics,emo_sem_emo_sem,1.36214218905661,1,2,2,1,598349.503216497,143,A
69,1,2/5/95,21,f,34,Eve typed the message,Sensible,edin_semantics,emo_sem_emo_sem,1.5030789085431,2,1,1,1,598351.749575367,124,A
69,1,2/5/95,21,f,35,The room searched Jen,Non-sensible,edin_semantics,emo_sem_emo_sem,1.20898733416107,1,1,1,1,598353.701891733,10,A
69,1,2/5/95,21,f,36,The teeth brushed Carl,Non-sensible,edin_semantics,emo_sem_emo_sem,1.25595480168704,1,1,1,1,598355.701254784,72,A
69,1,2/5/95,21,f,37,The book read Sean,Non-sensible,edin_semantics,emo_sem_emo_sem,1.18562002154067,2,1,1,1,598357.630035459,4,A
69,1,2/5/95,21,f,38,Ryan stroked the blanket,Sensible,edin_semantics,emo_sem_emo_sem,1.18545709608588,1,1,1,1,598359.558932235,116,A
69,1,2/5/95,21,f,39,Ian mailed the invite,Sensible,edin_semantics,emo_sem_emo_sem,0.973877385025844,1,2,2,1,598361.276015495,89,A
69,1,2/5/95,21,f,40,Eve ironed the trousers,Sensible,edin_semantics,emo_sem_emo_sem,1.47946111403871,2,1,1,1,598363.498881651,130,A
69,1,2/5/95,21,f,41,The sofa sold Carl,Non-sensible,edin_semantics,emo_sem_emo_sem,1.65598905447405,1,1,1,1,598365.898125009,38,A
69,1,2/5/95,21,f,42,The letter typed Phil,Non-sensible,edin_semantics,emo_sem_emo_sem,1.24466194224078,2,2,2,1,598367.885777303,49,A
69,1,2/5/95,21,f,43,Luke fixed the radio,Sensible,edin_semantics,emo_sem_emo_sem,0.985865564551204,2,1,1,1,598369.614662404,112,A
69,1,2/5/95,21,f,44,Tom grated the carrots,Sensible,edin_semantics,emo_sem_emo_sem,1.05622054985724,2,1,1,1,598371.414094923,140,A
69,1,2/5/95,21,f,45,The fruits mixed Jack,Non-sensible,edin_semantics,emo_sem_emo_sem,1.05622151214629,1,1,1,1,598373.213508519,8,A
69,1,2/5/95,21,f,46,The bowl scrubbed Liz,Non-sensible,edin_semantics,emo_sem_emo_sem,0.833282873500139,2,1,1,1,598374.789510736,56,A
69,1,2/5/95,21,f,47,The cake iced Mary,Non-sensible,edin_semantics,emo_sem_emo_sem,1.15045407484286,1,1,1,1,598376.683066131,44,A
69,1,2/5/95,21,f,48,Ian labeled the box,Sensible,edin_semantics,emo_sem_emo_sem,0.856663014739752,2,1,1,1,598378.28255561,136,A
69,1,2/5/95,21,f,49,Lucy counted the shoes,Sensible,edin_semantics,emo_sem_emo_sem,1.29118457157165,1,2,2,1,598380.31721514,123,A
69,1,2/5/95,21,f,50,The shelf dusted Jake,Non-sensible,edin_semantics,emo_sem_emo_sem,0.914916927111335,2,2,2,1,598381.975557956,47,A
69,1,2/5/95,21,f,51,Anna polished the trophy,Sensible,edin_semantics,emo_sem_emo_sem,0.632627515005879,2,1,1,1,598383.351606228,104,A
69,1,2/5/95,21,f,52,Ian filed the report,Sensible,edin_semantics,emo_sem_emo_sem,0.821472051786259,2,2,2,1,598384.915845731,99,A
69,1,2/5/95,21,f,53,The hill climbed Luke,Non-sensible,edin_semantics,emo_sem_emo_sem,0.879857459338382,2,1,1,1,598386.538863203,68,A
69,1,2/5/95,21,f,54,Tom whisked the cream,Sensible,edin_semantics,emo_sem_emo_sem,1.35022039862815,2,2,2,1,598388.632338226,137,A
69,1,2/5/95,21,f,55,Liz weighed the sugar,Sensible,edin_semantics,emo_sem_emo_sem,0.973966224468313,1,2,2,1,598390.349473443,139,A
69,1,2/5/95,21,f,56,Fred served the dessert,Sensible,edin_semantics,emo_sem_emo_sem,0.856528953881934,1,2,2,1,598391.948981202,145,A
69,1,2/5/95,21,f,57,Alex dusted the house,Sensible,edin_semantics,emo_sem_emo_sem,0.65662279643584,2,1,1,1,598393.348544959,122,A
69,1,2/5/95,21,f,58,The museum visited Mary,Non-sensible,edin_semantics,emo_sem_emo_sem,0.703619128791615,2,1,1,1,598394.795133593,16,A
69,1,2/5/95,21,f,59,The lesson taught Eve,Non-sensible,edin_semantics,emo_sem_emo_sem,1.11487760697491,2,2,2,1,598396.653351777,15,A
69,1,2/5/95,21,f,60,The garden watered Jeff,Non-sensible,edin_semantics,emo_sem_emo_sem,1.00950003648177,1,1,1,1,598398.405815545,54,A
69,1,2/5/95,21,f,61,Phil solved the problem,Sensible,edin_semantics,emo_sem_emo_sem,0.973585530184209,1,2,2,1,598400.122911955,109,A
69,1,2/5/95,21,f,62,The jumper wore Joe,Non-sensible,edin_semantics,emo_sem_emo_sem,0.774231651914306,2,2,2,1,598401.640089057,25,A
69,1,2/5/95,21,f,63,The room tidied Sam,Non-sensible,edin_semantics,emo_sem_emo_sem,0.809130439301953,2,1,1,1,598403.192551415,2,A
69,1,2/5/95,21,f,64,The potatoes mashed Will,Non-sensible,edin_semantics,emo_sem_emo_sem,1.13842227740679,1,1,1,1,598405.074376168,28,A
69,1,2/5/95,21,f,65,Kate hugged the pillow,Sensible,edin_semantics,emo_sem_emo_sem,1.02106390404515,2,1,1,1,598406.838495209,86,A
69,1,2/5/95,21,f,66,Liam sliced the onion,Sensible,edin_semantics,emo_sem_emo_sem,1.07988260383718,2,1,1,1,598408.661468229,78,A
69,1,2/5/95,21,f,67,The eggs whisked Dan,Non-sensible,edin_semantics,emo_sem_emo_sem,1.12583050352987,1,1,1,1,598410.531483444,62,A
69,1,2/5/95,21,f,68,Jack cleaned the bath,Sensible,edin_semantics,emo_sem_emo_sem,1.37259572511539,2,1,1,1,598412.648466896,80,A
69,1,2/5/95,21,f,69,The table wiped Beth,Non-sensible,edin_semantics,emo_sem_emo_sem,0.97322151332628,1,1,1,1,598414.36560115,40,A
69,1,2/5/95,21,f,70,The scarf knitted Tom,Non-sensible,edin_semantics,emo_sem_emo_sem,0.785380508168601,1,1,1,1,598415.894539042,66,A
69,1,2/5/95,21,f,71,John carried the kettle,Sensible,edin_semantics,emo_sem_emo_sem,0.667664211709052,1,2,1,0,598417.305954353,105,A
69,1,2/5/95,21,f,72,The paper cut Jon,Non-sensible,edin_semantics,emo_sem_emo_sem,1.12633210909553,1,1,1,1,598419.175910234,20,A
69,1,2/5/95,21,f,73,The movie watched Ella,Non-sensible,edin_semantics,emo_sem_emo_sem,0.973712214501575,2,2,2,1,598420.893036792,33,A
69,1,2/5/95,21,f,74,The pill swallowed Luke,Non-sensible,edin_semantics,emo_sem_emo_sem,1.10261392930988,1,1,1,1,598422.739509261,22,A
69,1,2/5/95,21,f,75,Ben got the radio,Sensible,edin_semantics,emo_sem_emo_sem,0.985176658839919,2,1,1,1,598424.468377364,88,A
69,1,2/5/95,21,f,76,The tomato sliced Liz,Non-sensible,edin_semantics,emo_sem_emo_sem,1.32597303134389,1,2,2,1,598426.538327601,3,A
69,1,2/5/95,21,f,77,Erin punched the monitor,Sensible,edin_semantics,emo_sem_emo_sem,1.05590560322162,2,2,2,1,598428.337815283,125,A
69,1,2/5/95,21,f,78,The house built Kate,Non-sensible,edin_semantics,emo_sem_emo_sem,0.97341362433508,2,1,1,1,598430.05489694,46,A
69,1,2/5/95,21,f,79,The wine stored Leo,Non-sensible,edin_semantics,emo_sem_emo_sem,0.985125343548134,1,1,1,1,598431.78382598,52,A
69,1,2/5/95,21,f,80,The ham ate Tim,Non-sensible,edin_semantics,emo_sem_emo_sem,0.867649266147055,1,2,2,1,598433.395034875,67,A
69,1,2/5/95,21,f,81,The lorry dented Lily,Non-sensible,edin_semantics,emo_sem_emo_sem,1.36178586969618,1,2,2,1,598435.500314626,71,A
69,1,2/5/95,21,f,82,The spoon licked Will,Non-sensible,edin_semantics,emo_sem_emo_sem,1.17331561248284,1,2,2,1,598437.417359849,21,A
69,1,2/5/95,21,f,83,Adam watched the opera,Sensible,edin_semantics,emo_sem_emo_sem,1.16150960174855,2,1,1,1,598439.322660639,108,A
69,1,2/5/95,21,f,84,The coins polished Jon,Non-sensible,edin_semantics,emo_sem_emo_sem,1.0553238177672,1,2,2,1,598441.122055313,29,A
69,1,2/5/95,21,f,85,Jay squeezed the lemon,Sensible,edin_semantics,emo_sem_emo_sem,0.985208410071209,2,1,1,1,598442.850959016,76,A
69,1,2/5/95,21,f,86,The pen described John,Non-sensible,edin_semantics,emo_sem_emo_sem,1.0671939724125,2,1,1,1,598444.662181189,42,A
69,1,2/5/95,21,f,87,Leo passed the salt,Sensible,edin_semantics,emo_sem_emo_sem,1.12655308481772,2,1,1,1,598446.532168501,118,A
69,1,2/5/95,21,f,88,The bushes trimmed Jon,Non-sensible,edin_semantics,emo_sem_emo_sem,1.10329481703229,1,1,1,1,598448.378710887,32,A
69,1,2/5/95,21,f,89,The cheese grated Andy,Non-sensible,edin_semantics,emo_sem_emo_sem,1.10338686360046,2,2,2,1,598450.22523435,65,A
69,1,2/5/95,21,f,90,Rose built the shed,Sensible,edin_semantics,emo_sem_emo_sem,1.09158951218706,1,2,2,1,598452.059903374,121,A
69,1,2/5/95,21,f,91,The box lifted Kate,Non-sensible,edin_semantics,emo_sem_emo_sem,1.20947226230055,1,2,2,1,598454.012247,69,A
69,1,2/5/95,21,f,92,The lever pulled Hugh,Non-sensible,edin_semantics,emo_sem_emo_sem,1.04442897147965,2,2,2,1,598455.79994118,45,A
69,1,2/5/95,21,f,93,Owen swallowed the gum,Sensible,edin_semantics,emo_sem_emo_sem,1.02092823968269,1,2,2,1,598457.564114102,97,A
69,1,2/5/95,21,f,94,The towels passed Phil,Non-sensible,edin_semantics,emo_sem_emo_sem,1.30332958302461,1,2,2,1,598459.610528328,43,A
69,1,2/5/95,21,f,95,The herbs chopped Phil,Non-sensible,edin_semantics,emo_sem_emo_sem,1.04466021037661,1,2,2,1,598461.398243034,27,A
69,1,2/5/95,21,f,96,The trolley pushed Matt,Non-sensible,edin_semantics,emo_sem_emo_sem,1.20873236202169,1,1,1,1,598463.35056421,26,A
69,1,2/5/95,21,f,97,Beth washed the pan,Sensible,edin_semantics,emo_sem_emo_sem,1.16210614028387,1,1,1,1,598465.255852813,132,A
69,1,2/5/95,21,f,98,Mike ate the steak,Sensible,edin_semantics,emo_sem_emo_sem,1.09136436705012,1,1,1,1,598467.090601054,142,A
69,1,2/5/95,21,f,99,The papers filed Lara,Non-sensible,edin_semantics,emo_sem_emo_sem,1.10339071217459,2,1,1,1,598468.937120348,24,A
69,1,2/5/95,21,f,100,Jay painted the portrait,Sensible,edin_semantics,emo_sem_emo_sem,0.914845085935667,2,1,1,1,598470.595381701,110,A
69,1,2/5/95,21,f,101,Hugh dialed the hotline,Sensible,edin_semantics,emo_sem_emo_sem,1.05603068391792,1,1,1,1,598472.394843405,138,A
69,1,2/5/95,21,f,102,Jack posted the gift,Sensible,edin_semantics,emo_sem_emo_sem,1.04445559123997,1,2,2,1,598474.182535661,111,A
69,1,2/5/95,21,f,103,The floor cleaned Tim,Non-sensible,edin_semantics,emo_sem_emo_sem,0.973824466345832,2,2,2,1,598475.899673443,5,A
69,1,2/5/95,21,f,104,Emma pulled the rope,Sensible,edin_semantics,emo_sem_emo_sem,0.96212301007472,2,1,1,1,598477.604983727,120,A
69,1,2/5/95,21,f,105,The flour weighed Jen,Non-sensible,edin_semantics,emo_sem_emo_sem,1.12657906312961,1,1,1,1,598479.475019468,64,A
69,1,2/5/95,21,f,106,Bill trimmed the hair,Sensible,edin_semantics,emo_sem_emo_sem,1.0561288241297,2,2,2,1,598481.274483096,107,A
69,1,2/5/95,21,f,107,Tim took the ticket,Sensible,edin_semantics,emo_sem_emo_sem,1.00890349794645,2,1,1,1,598483.026896832,128,A
69,1,2/5/95,21,f,108,The picture painted Ryan,Non-sensible,edin_semantics,emo_sem_emo_sem,0.87959382776171,1,2,2,1,598484.64993034,35,A
69,1,2/5/95,21,f,109,Josh scrubbed the pot,Sensible,edin_semantics,emo_sem_emo_sem,0.960990548948757,1,2,2,1,598486.355271091,131,A
69,1,2/5/95,21,f,110,Alex wrote the report,Sensible,edin_semantics,emo_sem_emo_sem,1.11365213722456,1,2,2,1,598488.213505312,149,A
69,1,2/5/95,21,f,111,Sam sucked the candy,Sensible,edin_semantics,emo_sem_emo_sem,0.984059271519072,2,2,2,1,598489.942394903,87,A
69,1,2/5/95,21,f,112,The money offered Matt,Non-sensible,edin_semantics,emo_sem_emo_sem,0.937857682583854,1,2,2,1,598491.624223377,9,A
69,1,2/5/95,21,f,113,Josh crushed the ice,Sensible,edin_semantics,emo_sem_emo_sem,1.00811388634611,2,2,2,1,598493.376632623,81,A
69,1,2/5/95,21,f,114,The handle pulled Tim,Non-sensible,edin_semantics,emo_sem_emo_sem,1.00839772319887,1,2,2,1,598495.129052774,73,A
69,1,2/5/95,21,f,115,Tim sniffed the perfume,Sensible,edin_semantics,emo_sem_emo_sem,1.1259154942818,2,2,2,1,598496.999085308,93,A
69,1,2/5/95,21,f,116,Jane licked the plate,Sensible,edin_semantics,emo_sem_emo_sem,2.46692065522075,2,1,1,1,598500.209845259,96,A
69,1,2/5/95,21,f,117,Erin described the church,Sensible,edin_semantics,emo_sem_emo_sem,0.855275902315043,2,2,2,1,598501.809340831,117,A
69,1,2/5/95,21,f,118,The dishes washed Mark,Non-sensible,edin_semantics,emo_sem_emo_sem,1.14963656046893,1,2,2,1,598503.702889171,57,A
69,1,2/5/95,21,f,119,Liam mixed the nuts,Sensible,edin_semantics,emo_sem_emo_sem,0.914594603935257,2,2,2,1,598505.361209216,83,A
69,1,2/5/95,21,f,120,The plans cancelled Ian,Non-sensible,edin_semantics,emo_sem_emo_sem,0.973098677699454,1,2,2,1,598507.078309795,7,A
69,1,2/5/95,21,f,121,Luke watered the plants,Sensible,edin_semantics,emo_sem_emo_sem,1.12600465421565,2,2,2,1,598508.94832501,129,A
69,1,2/5/95,21,f,122,The juice drank Matt,Non-sensible,edin_semantics,emo_sem_emo_sem,1.14976581057999,2,1,1,1,598510.84190478,60,A
69,1,2/5/95,21,f,123,Leo carried the wallet,Sensible,edin_semantics,emo_sem_emo_sem,1.14874752564356,2,1,1,1,598512.735434517,150,A
69,1,2/5/95,21,f,124,Fred lent the car,Sensible,edin_semantics,emo_sem_emo_sem,1.38516440731473,1,1,1,1,598514.864133217,94,A
69,1,2/5/95,21,f,125,Jay sold the bed,Sensible,edin_semantics,emo_sem_emo_sem,1.00900741119403,2,2,2,1,598516.61655016,113,A
69,1,2/5/95,21,f,126,Tom visited the hospital,Sensible,edin_semantics,emo_sem_emo_sem,1.0556054096669,1,2,2,1,598518.416004808,91,A
69,1,2/5/95,21,f,127,Erin tidied the garage,Sensible,edin_semantics,emo_sem_emo_sem,1.05511310498696,1,2,2,1,598520.215470682,77,A
69,1,2/5/95,21,f,128,The jar labeled Liz,Non-sensible,edin_semantics,emo_sem_emo_sem,1.29113967088051,1,2,2,1,598522.250114497,61,A
69,1,2/5/95,21,f,129,Jack drank the beer,Sensible,edin_semantics,emo_sem_emo_sem,1.12648028146941,2,2,2,1,598524.120156332,135,A
69,1,2/5/95,21,f,130,Tom offered the sweets,Sensible,edin_semantics,emo_sem_emo_sem,0.961296194931492,2,1,1,1,598525.825491631,84,A
69,1,2/5/95,21,f,131,Josh taught the rules,Sensible,edin_semantics,emo_sem_emo_sem,1.06735593592748,1,1,1,1,598527.63670771,90,A
69,1,2/5/95,21,f,132,Ella mashed the turnip,Sensible,edin_semantics,emo_sem_emo_sem,1.47805604129098,1,2,2,1,598529.85956649,103,A
69,1,2/5/95,21,f,133,Lucy wiped the desk,Sensible,edin_semantics,emo_sem_emo_sem,1.06739570526406,1,2,2,1,598531.670793794,115,A
69,1,2/5/95,21,f,134,The thread measured Amy,Non-sensible,edin_semantics,emo_sem_emo_sem,1.34895804594271,1,2,2,1,598533.764236104,51,A
69,1,2/5/95,21,f,135,The garlic crushed Erin,Non-sensible,edin_semantics,emo_sem_emo_sem,1.02001098147593,2,1,1,1,598535.528422175,6,A
69,1,2/5/95,21,f,136,Kate wore the dress,Sensible,edin_semantics,emo_sem_emo_sem,1.18504849926103,1,1,1,1,598537.457212792,100,A
69,1,2/5/95,21,f,137,Ian pushed the button,Sensible,edin_semantics,emo_sem_emo_sem,1.17359495931305,2,2,2,1,598539.374290408,101,A
69,1,2/5/95,21,f,138,The gun carried Ryan,Non-sensible,edin_semantics,emo_sem_emo_sem,1.27905270969495,2,2,2,1,598541.39723886,75,A
69,1,2/5/95,21,f,139,The toffee chewed Ben,Non-sensible,edin_semantics,emo_sem_emo_sem,1.0319847286446,1,2,2,1,598543.17312286,31,A
69,1,2/5/95,21,f,140,The sheets counted Bill,Non-sensible,edin_semantics,emo_sem_emo_sem,1.02024350315332,2,1,1,1,598544.937307648,48,A
69,1,2/5/95,21,f,141,The mirror kissed Max,Non-sensible,edin_semantics,emo_sem_emo_sem,0.973290147376247,1,2,2,1,598546.65442266,23,A
69,1,2/5/95,21,f,142,The wall punched Jane,Non-sensible,edin_semantics,emo_sem_emo_sem,1.05528212420177,2,1,1,1,598548.45388276,50,A
69,1,2/5/95,21,f,143,The bike kicked Matt,Non-sensible,edin_semantics,emo_sem_emo_sem,0.948776582838036,1,2,2,1,598550.147421671,39,A
69,1,2/5/95,21,f,144,The laptop fixed Jen,Non-sensible,edin_semantics,emo_sem_emo_sem,0.937445557792671,1,2,2,1,598551.829296649,37,A
69,1,2/5/95,21,f,145,Zoe paid the debt,Sensible,edin_semantics,emo_sem_emo_sem,0.89018270757515,1,1,1,1,598553.464074589,134,A
69,1,2/5/95,21,f,146,Hugh kissed the rose,Sensible,edin_semantics,emo_sem_emo_sem,1.03137439920101,1,1,1,1,598555.239991623,98,A
69,1,2/5/95,21,f,147,The puzzle solved Joe,Non-sensible,edin_semantics,emo_sem_emo_sem,0.91388388921041,1,1,1,1,598556.89833508,34,A
69,1,2/5/95,21,f,148,Max searched the internet,Sensible,edin_semantics,emo_sem_emo_sem,1.03174996178132,2,2,2,1,598558.674232871,85,A
69,1,2/5/95,21,f,149,The bill paid Mike,Non-sensible,edin_semantics,emo_sem_emo_sem,0.901811681105755,2,2,2,1,598560.320766148,59,A
69,1,2/5/95,21,f,150,Dan brushed the hair,Sensible,edin_semantics,emo_sem_emo_sem,0.948916737339459,1,2,2,1,598562.014399991,147,A
69,1,2/5/95,21,f,151,Eve taught the lesson,Sensible,edin_semantics,emo_sem_emo_sem,2.68421270383988,2,1,1,1,598613.50446538,15,B
69,1,2/5/95,21,f,152,Amy hugged the tree,Sensible,edin_semantics,emo_sem_emo_sem,0.773422155645676,2,1,1,1,598615.021671026,11,B
69,1,2/5/95,21,f,153,The hotline dialed Hugh,Non-sensible,edin_semantics,emo_sem_emo_sem,0.984673770377412,1,2,2,1,598616.750541696,138,B
69,1,2/5/95,21,f,154,Will licked the spoon,Sensible,edin_semantics,emo_sem_emo_sem,1.10239199118223,1,1,1,1,598618.597015447,21,B
69,1,2/5/95,21,f,155,The salt passed Leo,Non-sensible,edin_semantics,emo_sem_emo_sem,1.16104006813839,1,2,2,1,598620.502358572,118,B
69,1,2/5/95,21,f,156,Jane punched the wall,Sensible,edin_semantics,emo_sem_emo_sem,1.13767981145065,2,2,2,1,598622.384091921,50,B
69,1,2/5/95,21,f,157,The bed sold Jay,Non-sensible,edin_semantics,emo_sem_emo_sem,0.996601333958097,2,1,1,1,598624.124718889,113,B
69,1,2/5/95,21,f,158,Sean read the book,Sensible,edin_semantics,emo_sem_emo_sem,1.1373754485976,2,2,2,1,598626.006523438,4,B
69,1,2/5/95,21,f,159,Mary visited the museum,Sensible,edin_semantics,emo_sem_emo_sem,1.0786683592014,2,2,2,1,598627.829472083,16,B
69,1,2/5/95,21,f,160,Will mashed the potatoes,Sensible,edin_semantics,emo_sem_emo_sem,1.60838014772162,2,2,2,1,598630.181717826,28,B
69,1,2/5/95,21,f,161,Ryan carried the gun,Sensible,edin_semantics,emo_sem_emo_sem,0.926181884016842,2,1,1,1,598631.851787435,75,B
69,1,2/5/95,21,f,162,The opera watched Adam,Non-sensible,edin_semantics,emo_sem_emo_sem,1.54960185859818,1,2,2,1,598634.145209347,108,B
69,1,2/5/95,21,f,163,Ryan painted the picture,Sensible,edin_semantics,emo_sem_emo_sem,1.06717216363177,1,1,1,1,598635.956438575,35,B
69,1,2/5/95,21,f,164,Jake dusted the shelf,Sensible,edin_semantics,emo_sem_emo_sem,1.25538199639414,2,1,1,1,598637.95575897,47,B
69,1,2/5/95,21,f,165,Joe wore the jumper,Sensible,edin_semantics,emo_sem_emo_sem,1.11426471173763,2,1,1,1,598639.814066635,25,B
69,1,2/5/95,21,f,166,Tim cleaned the floor,Sensible,edin_semantics,emo_sem_emo_sem,1.09130118519533,2,1,1,1,598641.648763241,5,B
69,1,2/5/95,21,f,167,Tom knitted the scarf,Sensible,edin_semantics,emo_sem_emo_sem,1.43126817676239,1,2,2,1,598643.824625367,66,B
69,1,2/5/95,21,f,168,Jon cut the paper,Sensible,edin_semantics,emo_sem_emo_sem,2.0085965692997,2,2,2,1,598646.57667669,20,B
69,1,2/5/95,21,f,169,Mike paid the bill,Sensible,edin_semantics,emo_sem_emo_sem,0.843656229553744,2,1,1,1,598648.164471127,59,B
69,1,2/5/95,21,f,170,Amy measured the thread,Sensible,edin_semantics,emo_sem_emo_sem,1.10191059100907,2,1,1,1,598650.010899336,51,B
69,1,2/5/95,21,f,171,The shed built Rose,Non-sensible,edin_semantics,emo_sem_emo_sem,1.02026916074101,1,1,1,1,598651.775095029,121,B
69,1,2/5/95,21,f,172,The monitor punched Erin,Non-sensible,edin_semantics,emo_sem_emo_sem,0.902299495763145,1,1,1,1,598653.421627986,125,B
69,1,2/5/95,21,f,173,The perfume sniffed Tim,Non-sensible,edin_semantics,emo_sem_emo_sem,1.00833614496514,1,1,1,1,598655.174052306,93,B
69,1,2/5/95,21,f,174,The hedge jumped Sara,Non-sensible,edin_semantics,emo_sem_emo_sem,1.05538058513775,2,2,2,1,598656.973466222,92,B
69,1,2/5/95,21,f,175,Leo stored the wine,Sensible,edin_semantics,emo_sem_emo_sem,1.33747018908616,2,2,2,1,598659.055207717,52,B
69,1,2/5/95,21,f,176,Lily dented the lorry,Sensible,edin_semantics,emo_sem_emo_sem,0.761115180677734,1,1,1,1,598660.560611843,71,B
69,1,2/5/95,21,f,177,Jon polished the coins,Sensible,edin_semantics,emo_sem_emo_sem,0.797132638166659,1,1,1,1,598662.101311808,29,B
69,1,2/5/95,21,f,178,The radio fixed Luke,Non-sensible,edin_semantics,emo_sem_emo_sem,1.25588296051137,2,2,2,1,598664.100699233,112,B
69,1,2/5/95,21,f,179,Dan carried the folder,Sensible,edin_semantics,emo_sem_emo_sem,0.87911980424542,2,2,2,1,598665.723734344,30,B
69,1,2/5/95,21,f,180,The button pushed Ian,Non-sensible,edin_semantics,emo_sem_emo_sem,0.985311361146159,1,1,1,1,598667.452605655,101,B
69,1,2/5/95,21,f,181,The trousers ironed Eve,Non-sensible,edin_semantics,emo_sem_emo_sem,0.796453995397314,2,2,2,1,598668.993349558,130,B
69,1,2/5/95,21,f,182,The crate lifted Amy,Non-sensible,edin_semantics,emo_sem_emo_sem,0.80865801917389,2,2,2,1,598670.545763807,144,B
69,1,2/5/95,21,f,183,The car lent Fred,Non-sensible,edin_semantics,emo_sem_emo_sem,0.785468064597808,1,2,2,1,598672.074743392,94,B
69,1,2/5/95,21,f,184,The gum swallowed Owen,Non-sensible,edin_semantics,emo_sem_emo_sem,0.749795060139149,2,1,1,1,598673.568379673,97,B
69,1,2/5/95,21,f,185,The ribbon cut Lucy,Non-sensible,edin_semantics,emo_sem_emo_sem,0.86748313345015,1,1,1,1,598675.17968735,95,B
69,1,2/5/95,21,f,186,Matt drank the juice,Sensible,edin_semantics,emo_sem_emo_sem,1.14990211639088,2,2,2,1,598677.073185015,60,B
69,1,2/5/95,21,f,187,The hospital visited Tom,Non-sensible,edin_semantics,emo_sem_emo_sem,0.819426181260496,1,1,1,1,598678.637441517,91,B
69,1,2/5/95,21,f,188,Erin posted the card,Sensible,edin_semantics,emo_sem_emo_sem,0.984109303797595,2,2,2,1,598680.366313469,36,B
69,1,2/5/95,21,f,189,The wallet carried Leo,Non-sensible,edin_semantics,emo_sem_emo_sem,1.19567522394937,1,2,2,1,598682.306880591,150,B
69,1,2/5/95,21,f,190,The nuts mixed Liam,Non-sensible,edin_semantics,emo_sem_emo_sem,1.28982985182665,2,1,1,1,598684.341564817,83,B
69,1,2/5/95,21,f,191,Lily got the kettle,Sensible,edin_semantics,emo_sem_emo_sem,1.03108029917348,2,1,1,1,598686.117466777,13,B
69,1,2/5/95,21,f,192,The pan washed Beth,Non-sensible,edin_semantics,emo_sem_emo_sem,1.44298310310114,1,2,2,1,598688.305060186,132,B
69,1,2/5/95,21,f,193,The steak ate Mike,Non-sensible,edin_semantics,emo_sem_emo_sem,1.20788919006009,1,2,2,1,598690.257374948,142,B
69,1,2/5/95,21,f,194,Carl sold the sofa,Sensible,edin_semantics,emo_sem_emo_sem,1.20797482226044,1,2,2,1,598692.209712161,38,B
69,1,2/5/95,21,f,195,The dessert served Fred,Non-sensible,edin_semantics,emo_sem_emo_sem,1.0319292441709,1,1,1,1,598693.985651324,145,B
69,1,2/5/95,21,f,196,Luke swallowed the pill,Sensible,edin_semantics,emo_sem_emo_sem,1.04367624258157,1,2,2,1,598695.773369558,22,B
69,1,2/5/95,21,f,197,Hugh pulled the lever,Sensible,edin_semantics,emo_sem_emo_sem,0.972636520746164,1,1,1,1,598697.490482003,45,B
69,1,2/5/95,21,f,198,The turnip mashed Ella,Non-sensible,edin_semantics,emo_sem_emo_sem,0.949476713780314,2,1,1,1,598699.184087302,103,B
69,1,2/5/95,21,f,199,Erin crushed the garlic,Sensible,edin_semantics,emo_sem_emo_sem,0.937595013179816,2,2,2,1,598700.865889157,6,B
69,1,2/5/95,21,f,200,Jon trimmed the bushes,Sensible,edin_semantics,emo_sem_emo_sem,1.25498815265018,2,2,2,1,598702.865294222,32,B
69,1,2/5/95,21,f,201,Kate lifted the box,Sensible,edin_semantics,emo_sem_emo_sem,1.18497729953378,1,1,1,1,598704.794082915,69,B
69,1,2/5/95,21,f,202,The donut iced Joe,Non-sensible,edin_semantics,emo_sem_emo_sem,0.973062115721405,1,1,1,1,598706.511206586,119,B
69,1,2/5/95,21,f,203,The poster read Luke,Non-sensible,edin_semantics,emo_sem_emo_sem,0.76116072293371,1,1,1,1,598708.016659782,79,B
69,1,2/5/95,21,f,204,The curtains measured Rob,Non-sensible,edin_semantics,emo_sem_emo_sem,0.937799311592244,1,2,2,1,598709.698482804,126,B
69,1,2/5/95,21,f,205,The invite mailed Ian,Non-sensible,edin_semantics,emo_sem_emo_sem,0.690660772263072,2,1,1,1,598711.133329891,89,B
69,1,2/5/95,21,f,206,Joe solved the puzzle,Sensible,edin_semantics,emo_sem_emo_sem,0.795588052249514,1,2,2,1,598712.674002273,34,B
69,1,2/5/95,21,f,207,The lemon squeezed Jay,Non-sensible,edin_semantics,emo_sem_emo_sem,1.83113020320889,2,2,2,1,598715.249758819,76,B
69,1,2/5/95,21,f,208,Mark washed the dishes,Sensible,edin_semantics,emo_sem_emo_sem,0.725146472686902,2,1,1,1,598716.719843053,57,B
69,1,2/5/95,21,f,209,The problem solved Phil,Non-sensible,edin_semantics,emo_sem_emo_sem,0.948380494024605,2,1,1,1,598718.413465992,109,B
69,1,2/5/95,21,f,210,Carl brushed the teeth,Sensible,edin_semantics,emo_sem_emo_sem,0.936863451614045,1,2,2,1,598720.095306653,72,B
69,1,2/5/95,21,f,211,The ice crushed Josh,Non-sensible,edin_semantics,emo_sem_emo_sem,1.01909372326918,2,1,1,1,598721.859443013,81,B
69,1,2/5/95,21,f,212,Beth wiped the table,Sensible,edin_semantics,emo_sem_emo_sem,0.854756657266989,1,2,2,1,598723.458955583,40,B
69,1,2/5/95,21,f,213,The rope pulled Andy,Non-sensible,edin_semantics,emo_sem_emo_sem,1.05468141636811,1,2,2,1,598725.258435568,148,B
69,1,2/5/95,21,f,214,The office entered Joe,Non-sensible,edin_semantics,emo_sem_emo_sem,0.937086351797916,2,1,1,1,598726.940269494,133,B
69,1,2/5/95,21,f,215,The door kicked Max,Non-sensible,edin_semantics,emo_sem_emo_sem,1.73710578749888,2,2,2,1,598729.42183934,114,B
69,1,2/5/95,21,f,216,The kettle carried John,Non-sensible,edin_semantics,emo_sem_emo_sem,0.808124341652729,1,1,1,1,598730.974292717,105,B
69,1,2/5/95,21,f,217,Josh squeezed the ball,Sensible,edin_semantics,emo_sem_emo_sem,0.843403502483852,2,1,1,1,598732.562040649,1,B
69,1,2/5/95,21,f,218,Josh ironed the shirt,Sensible,edin_semantics,emo_sem_emo_sem,1.04352101415861,1,1,1,1,598734.349746696,55,B
69,1,2/5/95,21,f,219,Phil sniffed the milk,Sensible,edin_semantics,emo_sem_emo_sem,1.3261914413888,2,2,2,1,598736.419680255,18,B
69,1,2/5/95,21,f,220,The plants watered Luke,Non-sensible,edin_semantics,emo_sem_emo_sem,1.1021642802516,1,1,1,1,598738.266154969,129,B
69,1,2/5/95,21,f,221,The report wrote Alex,Non-sensible,edin_semantics,emo_sem_emo_sem,1.07851665886119,2,1,1,1,598740.089166796,149,B
69,1,2/5/95,21,f,222,The message typed Eve,Non-sensible,edin_semantics,emo_sem_emo_sem,1.16125751601066,2,2,2,1,598741.994441608,124,B
69,1,2/5/95,21,f,223,Sam tidied the room,Sensible,edin_semantics,emo_sem_emo_sem,1.16085501294583,1,2,2,1,598743.899751699,2,B
69,1,2/5/95,21,f,224,The hair brushed Dan,Non-sensible,edin_semantics,emo_sem_emo_sem,1.17265813727863,1,1,1,1,598745.816862348,147,B
69,1,2/5/95,21,f,225,The trophy polished Anna,Non-sensible,edin_semantics,emo_sem_emo_sem,1.25542272778694,1,2,2,1,598747.816387683,104,B
69,1,2/5/95,21,f,226,The house dusted Alex,Non-sensible,edin_semantics,emo_sem_emo_sem,1.31378279835917,2,2,2,1,598749.874379889,122,B
69,1,2/5/95,21,f,227,Rob stroked the fur,Sensible,edin_semantics,emo_sem_emo_sem,1.23083122831304,2,1,1,1,598751.850232265,41,B
69,1,2/5/95,21,f,228,Phil chopped the herbs,Sensible,edin_semantics,emo_sem_emo_sem,1.19591961218975,1,1,1,1,598753.790838515,27,B
69,1,2/5/95,21,f,229,Tim ate the ham,Sensible,edin_semantics,emo_sem_emo_sem,1.31424367253203,1,1,1,1,598755.849011927,67,B
69,1,2/5/95,21,f,230,John described the pen,Sensible,edin_semantics,emo_sem_emo_sem,1.77242247248068,2,2,2,1,598758.365889477,42,B
69,1,2/5/95,21,f,231,The hair trimmed Bill,Non-sensible,edin_semantics,emo_sem_emo_sem,1.59627875417937,1,1,1,1,598760.70637379,107,B
69,1,2/5/95,21,f,232,Leah sucked the lolly,Sensible,edin_semantics,emo_sem_emo_sem,2.16107566806022,1,2,2,1,598763.611320826,12,B
69,1,2/5/95,21,f,233,The fat chewed Adam,Non-sensible,edin_semantics,emo_sem_emo_sem,1.30266537261195,1,2,2,1,598765.657769369,106,B
69,1,2/5/95,21,f,234,The garage tidied Erin,Non-sensible,edin_semantics,emo_sem_emo_sem,1.0671795400558,2,1,1,1,598767.469003409,77,B
69,1,2/5/95,21,f,235,Ian cancelled the plans,Sensible,edin_semantics,emo_sem_emo_sem,1.3261305046035,1,1,1,1,598769.538927988,7,B
69,1,2/5/95,21,f,236,The onion sliced Liam,Non-sensible,edin_semantics,emo_sem_emo_sem,0.914590755361132,2,2,2,1,598771.197285557,78,B
69,1,2/5/95,21,f,237,Kate built the house,Sensible,edin_semantics,emo_sem_emo_sem,1.07922320417129,1,2,2,1,598773.020242541,46,B
69,1,2/5/95,21,f,238,Tim pulled the handle,Sensible,edin_semantics,emo_sem_emo_sem,1.65572093275841,1,1,1,1,598775.419480768,73,B
69,1,2/5/95,21,f,239,Ewan wrote the story,Sensible,edin_semantics,emo_sem_emo_sem,0.996889340109192,1,2,2,1,598777.160130507,74,B
69,1,2/5/95,21,f,240,The portrait painted Jay,Non-sensible,edin_semantics,emo_sem_emo_sem,1.06726998311933,1,2,2,1,598778.971394694,110,B
69,1,2/5/95,21,f,241,The bowl dented Ian,Non-sensible,edin_semantics,emo_sem_emo_sem,1.15007049415726,2,2,2,1,598780.864900699,146,B
69,1,2/5/95,21,f,242,The cream whisked Tom,Non-sensible,edin_semantics,emo_sem_emo_sem,1.03200782043859,1,1,1,1,598782.64079432,137,B
69,1,2/5/95,21,f,243,The radio got Ben,Non-sensible,edin_semantics,emo_sem_emo_sem,1.00854910293128,2,2,2,1,598784.393218319,88,B
69,1,2/5/95,21,f,244,The pot scrubbed Josh,Non-sensible,edin_semantics,emo_sem_emo_sem,1.02031342010014,2,1,1,1,598786.157347944,131,B
69,1,2/5/95,21,f,245,Max kissed the mirror,Sensible,edin_semantics,emo_sem_emo_sem,1.25590284506325,1,1,1,1,598788.156749801,23,B
69,1,2/5/95,21,f,246,Tom dialed the number,Sensible,edin_semantics,emo_sem_emo_sem,1.16156733117532,1,1,1,1,598790.062048667,63,B
69,1,2/5/95,21,f,247,The debt paid Zoe,Non-sensible,edin_semantics,emo_sem_emo_sem,1.53819931310136,2,2,2,1,598792.343695999,134,B
69,1,2/5/95,21,f,248,The report filed Ian,Non-sensible,edin_semantics,emo_sem_emo_sem,0.973404002841562,1,1,1,1,598794.060852383,99,B
69,1,2/5/95,21,f,249,The blanket stroked Ryan,Non-sensible,edin_semantics,emo_sem_emo_sem,1.04398028471041,1,2,2,1,598795.848526999,116,B
69,1,2/5/95,21,f,250,Liz sliced the tomato,Sensible,edin_semantics,emo_sem_emo_sem,0.926207541604526,1,1,1,1,598797.518596929,3,B
69,1,2/5/95,21,f,251,Mary iced the cake,Sensible,edin_semantics,emo_sem_emo_sem,1.07896085549146,1,2,2,1,598799.341574759,44,B
69,1,2/5/95,21,f,252,Jack mixed the fruits,Sensible,edin_semantics,emo_sem_emo_sem,1.12531799345743,2,2,2,1,598801.211597671,8,B
69,1,2/5/95,21,f,253,The desk wiped Lucy,Non-sensible,edin_semantics,emo_sem_emo_sem,0.925619662506506,1,1,1,1,598802.881635529,115,B
69,1,2/5/95,21,f,254,Ella watched the movie,Sensible,edin_semantics,emo_sem_emo_sem,1.17211676249281,2,1,1,1,598804.798682676,33,B
69,1,2/5/95,21,f,255,The party cancelled Phil,Non-sensible,edin_semantics,emo_sem_emo_sem,0.913478820351884,1,2,2,1,598806.457033831,82,B
69,1,2/5/95,21,f,256,Phil passed the towels,Sensible,edin_semantics,emo_sem_emo_sem,0.584271331434138,2,1,1,1,598807.785999497,43,B
69,1,2/5/95,21,f,257,The sweets offered Tom,Non-sensible,edin_semantics,emo_sem_emo_sem,0.984792757313699,2,2,2,1,598809.514915388,84,B
69,1,2/5/95,21,f,258,Dan whisked the eggs,Sensible,edin_semantics,emo_sem_emo_sem,1.04344564513303,2,2,2,1,598811.302597701,62,B
69,1,2/5/95,21,f,259,Ben chewed the toffee,Sensible,edin_semantics,emo_sem_emo_sem,0.890790792065673,2,1,1,1,598812.937376603,31,B
69,1,2/5/95,21,f,260,The shoes counted Lucy,Non-sensible,edin_semantics,emo_sem_emo_sem,0.74975464947056,1,1,1,1,598814.43105105,123,B
69,1,2/5/95,21,f,261,Kate served the dish,Sensible,edin_semantics,emo_sem_emo_sem,1.03199178446084,2,2,2,1,598816.206961669,70,B
69,1,2/5/95,21,f,262,Beth took the photo,Sensible,edin_semantics,emo_sem_emo_sem,0.996845722314902,1,1,1,1,598817.94762552,53,B
69,1,2/5/95,21,f,263,The gift posted Jack,Non-sensible,edin_semantics,emo_sem_emo_sem,1.12598444893956,1,1,1,1,598819.81768756,111,B
69,1,2/5/95,21,f,264,The dress wore Kate,Non-sensible,edin_semantics,emo_sem_emo_sem,0.99660293746274,2,2,2,1,598821.558306831,100,B
69,1,2/5/95,21,f,265,Ryan entered the room,Sensible,edin_semantics,emo_sem_emo_sem,1.00868797441944,1,2,2,1,598823.310683043,58,B
69,1,2/5/95,21,f,266,The carrots grated Tom,Non-sensible,edin_semantics,emo_sem_emo_sem,1.07919273583684,2,2,2,1,598825.1336458,140,B
69,1,2/5/95,21,f,267,The pillow hugged Kate,Non-sensible,edin_semantics,emo_sem_emo_sem,1.04330484918319,1,2,2,1,598826.921322019,86,B
69,1,2/5/95,21,f,268,The beer drank Jack,Non-sensible,edin_semantics,emo_sem_emo_sem,0.973670841660351,2,1,1,1,598828.638435427,135,B
69,1,2/5/95,21,f,269,Phil typed the letter,Sensible,edin_semantics,emo_sem_emo_sem,0.985017261118628,1,1,1,1,598830.367319566,49,B
69,1,2/5/95,21,f,270,Liz labeled the jar,Sensible,edin_semantics,emo_sem_emo_sem,1.17315268691164,1,1,1,1,598832.284384353,61,B
69,1,2/5/95,21,f,271,Luke climbed the hill,Sensible,edin_semantics,emo_sem_emo_sem,1.31461057579145,2,2,2,1,598834.342592723,68,B
69,1,2/5/95,21,f,272,The stairs climbed Ben,Non-sensible,edin_semantics,emo_sem_emo_sem,1.13807333447039,2,1,1,1,598836.224426778,143,B
69,1,2/5/95,21,f,273,Jon jumped the fence,Sensible,edin_semantics,emo_sem_emo_sem,1.13799315458164,1,1,1,1,598838.106106245,17,B
69,1,2/5/95,21,f,274,The carrots chopped Fred,Non-sensible,edin_semantics,emo_sem_emo_sem,1.12631222442724,2,2,2,1,598839.97615257,102,B
69,1,2/5/95,21,f,275,Bill counted the sheets,Sensible,edin_semantics,emo_sem_emo_sem,1.0318484227173,2,2,2,1,598841.752080188,48,B
69,1,2/5/95,21,f,276,Rob mailed the parcel,Sensible,edin_semantics,emo_sem_emo_sem,0.902792441775091,2,2,2,1,598843.39869589,14,B
69,1,2/5/95,21,f,277,Lara filed the papers,Sensible,edin_semantics,emo_sem_emo_sem,1.54841936531011,2,2,2,1,598845.692030566,24,B
69,1,2/5/95,21,f,278,Matt offered the money,Sensible,edin_semantics,emo_sem_emo_sem,0.772287770290859,1,1,1,1,598847.209234609,9,B
69,1,2/5/95,21,f,279,The rice stored Fred,Non-sensible,edin_semantics,emo_sem_emo_sem,0.796054378617555,2,1,1,1,598848.749908595,127,B
69,1,2/5/95,21,f,280,Liz scrubbed the bowl,Sensible,edin_semantics,emo_sem_emo_sem,1.04334461840335,1,2,2,1,598850.537646713,56,B
69,1,2/5/95,21,f,281,Jen weighed the flour,Sensible,edin_semantics,emo_sem_emo_sem,1.33684510656167,2,2,2,1,598852.619342345,64,B
69,1,2/5/95,21,f,282,The plate licked Jane,Non-sensible,edin_semantics,emo_sem_emo_sem,0.890369045780972,2,2,2,1,598854.25408212,96,B
69,1,2/5/95,21,f,283,The socks knitted Ryan,Non-sensible,edin_semantics,emo_sem_emo_sem,0.878717942512594,2,1,1,1,598855.877170149,141,B
69,1,2/5/95,21,f,284,Matt kicked the bike,Sensible,edin_semantics,emo_sem_emo_sem,0.937898413976654,1,1,1,1,598857.558989964,39,B
69,1,2/5/95,21,f,285,The rose kissed Hugh,Non-sensible,edin_semantics,emo_sem_emo_sem,0.984638170455582,2,2,2,1,598859.287891102,98,B
69,1,2/5/95,21,f,286,The internet searched Max,Non-sensible,edin_semantics,emo_sem_emo_sem,0.937639272538945,2,1,1,1,598860.969724386,85,B
69,1,2/5/95,21,f,287,The sugar weighed Liz,Non-sensible,edin_semantics,emo_sem_emo_sem,0.855506820371374,2,1,1,1,598862.569176661,139,B
69,1,2/5/95,21,f,288,Max lent the bucket,Sensible,edin_semantics,emo_sem_emo_sem,0.844006455386989,1,1,1,1,598864.156961797,19,B
69,1,2/5/95,21,f,289,The rules taught Josh,Non-sensible,edin_semantics,emo_sem_emo_sem,1.22039982187562,1,2,2,1,598866.121080646,90,B
69,1,2/5/95,21,f,290,The candy sucked Sam,Non-sensible,edin_semantics,emo_sem_emo_sem,0.855925359530374,2,1,1,1,598867.720564993,87,B
69,1,2/5/95,21,f,291,The rope pulled Emma,Non-sensible,edin_semantics,emo_sem_emo_sem,1.14955638058018,2,2,2,1,598869.614126482,120,B
69,1,2/5/95,21,f,292,Jeff watered the garden,Sensible,edin_semantics,emo_sem_emo_sem,0.984952155034989,2,2,2,1,598871.343004527,54,B
69,1,2/5/95,21,f,293,Matt pushed the trolley,Sensible,edin_semantics,emo_sem_emo_sem,0.879004024434835,1,2,2,1,598872.96603162,26,B
69,1,2/5/95,21,f,294,Jen fixed the laptop,Sensible,edin_semantics,emo_sem_emo_sem,0.92648143612314,1,1,1,1,598874.636056649,37,B
69,1,2/5/95,21,f,295,The church described Erin,Non-sensible,edin_semantics,emo_sem_emo_sem,0.949521614587866,1,1,1,1,598876.329715509,117,B
69,1,2/5/95,21,f,296,The ticket took Tim,Non-sensible,edin_semantics,emo_sem_emo_sem,0.926345771644264,2,2,2,1,598877.999761705,128,B
69,1,2/5/95,21,f,297,The bath cleaned Jack,Non-sensible,edin_semantics,emo_sem_emo_sem,0.961580352508463,1,2,2,1,598879.705122662,80,B
69,1,2/5/95,21,f,298,The box labeled Ian,Non-sensible,edin_semantics,emo_sem_emo_sem,0.99707696121186,2,2,2,1,598881.445805436,136,B
69,1,2/5/95,21,f,299,Andy grated the cheese,Sensible,edin_semantics,emo_sem_emo_sem,1.05589245376177,2,1,1,1,598883.24523571,65,B
69,1,2/5/95,21,f,300,Jen searched the room,Sensible,edin_semantics,emo_sem_emo_sem,1.04371472890489,1,2,2,1,598885.032917061,10,B
