subject_column,AssignedList_column,subject_dob_column,subject_age_column,subject_gender_column,trialnum_column,Stim_column,Type_column,Experiment_column,OrderGroup_column,ReactionTime_column,StimSide_column,StimPosition_column,Response_column,Valid_column,TrialEndSecs_column,PairID_column,List_column
7,3,9/9/91,24,f,1,Max lent the bucket,Sensible,edin_semantics,emo_sem_emo_sem,1.14432893472258,2,1,1,1,264235.863882182,19,B
7,3,9/9/91,24,f,2,Mike paid the bill,Sensible,edin_semantics,emo_sem_emo_sem,1.11523177917115,1,1,1,1,264237.722177713,59,B
7,3,9/9/91,24,f,3,The bath cleaned Jack,Non-sensible,edin_semantics,emo_sem_emo_sem,0.879699214361608,1,2,2,1,264239.345204633,80,B
7,3,9/9/91,24,f,4,Ian cancelled the plans,Sensible,edin_semantics,emo_sem_emo_sem,0.832966855319683,1,1,1,1,264240.921218242,7,B
7,3,9/9/91,24,f,5,Jon trimmed the bushes,Sensible,edin_semantics,emo_sem_emo_sem,0.821326581935864,2,2,2,1,264242.485414219,32,B
7,3,9/9/91,24,f,6,Eve taught the lesson,Sensible,edin_semantics,emo_sem_emo_sem,1.09182647161651,1,1,1,1,264244.320150175,15,B
7,3,9/9/91,24,f,7,Beth took the photo,Sensible,edin_semantics,emo_sem_emo_sem,1.8909725821577,2,1,1,1,264246.954653159,53,B
7,3,9/9/91,24,f,8,The church described Erin,Non-sensible,edin_semantics,emo_sem_emo_sem,1.15087326103821,1,1,1,1,264248.848212041,117,B
7,3,9/9/91,24,f,9,Mary visited the museum,Sensible,edin_semantics,emo_sem_emo_sem,1.0214492258965,2,2,2,1,264250.612399165,16,B
7,3,9/9/91,24,f,10,Matt drank the juice,Sensible,edin_semantics,emo_sem_emo_sem,1.49112017825246,1,2,2,1,264252.847065781,60,B
7,3,9/9/91,24,f,11,The dress wore Kate,Non-sensible,edin_semantics,emo_sem_emo_sem,1.1393154131365,2,2,2,1,264254.728805748,100,B
7,3,9/9/91,24,f,12,The salt passed Leo,Non-sensible,edin_semantics,emo_sem_emo_sem,1.05648839246714,1,2,2,1,264256.52825494,118,B
7,3,9/9/91,24,f,13,The shed built Rose,Non-sensible,edin_semantics,emo_sem_emo_sem,1.56238806812325,2,1,1,1,264258.833431902,121,B
7,3,9/9/91,24,f,14,The opera watched Adam,Non-sensible,edin_semantics,emo_sem_emo_sem,1.38570376607822,2,2,2,1,264260.962210003,108,B
7,3,9/9/91,24,f,15,Matt pushed the trolley,Sensible,edin_semantics,emo_sem_emo_sem,0.927054735657293,2,2,2,1,264262.632288401,26,B
7,3,9/9/91,24,f,16,The message typed Eve,Non-sensible,edin_semantics,emo_sem_emo_sem,0.915392332477495,1,2,2,1,264264.290636402,124,B
7,3,9/9/91,24,f,17,The office entered Joe,Non-sensible,edin_semantics,emo_sem_emo_sem,1.8788874677266,1,1,1,1,264266.91336473,133,B
7,3,9/9/91,24,f,18,The button pushed Ian,Non-sensible,edin_semantics,emo_sem_emo_sem,1.40963377431035,1,1,1,1,264269.065636658,101,B
7,3,9/9/91,24,f,19,The carrots grated Tom,Non-sensible,edin_semantics,emo_sem_emo_sem,1.1271565327188,2,2,2,1,264270.935677659,140,B
7,3,9/9/91,24,f,20,Tom knitted the scarf,Sensible,edin_semantics,emo_sem_emo_sem,1.05684567644494,2,2,2,1,264272.735159886,66,B
7,3,9/9/91,24,f,21,The lemon squeezed Jay,Non-sensible,edin_semantics,emo_sem_emo_sem,1.11550407187315,2,2,2,1,264274.593391273,76,B
7,3,9/9/91,24,f,22,The hair brushed Dan,Non-sensible,edin_semantics,emo_sem_emo_sem,3.70279201067751,2,1,1,1,264279.039122595,147,B
7,3,9/9/91,24,f,23,Phil passed the towels,Sensible,edin_semantics,emo_sem_emo_sem,1.10361972922692,2,1,1,1,264280.885651809,43,B
7,3,9/9/91,24,f,24,Jack mixed the fruits,Sensible,edin_semantics,emo_sem_emo_sem,1.82121080142679,2,2,2,1,264283.449562985,8,B
7,3,9/9/91,24,f,25,Liz scrubbed the bowl,Sensible,edin_semantics,emo_sem_emo_sem,1.71504614542937,1,2,2,1,264285.90764979,56,B
7,3,9/9/91,24,f,26,Jon polished the coins,Sensible,edin_semantics,emo_sem_emo_sem,1.79765988618601,2,1,1,1,264288.448092155,29,B
7,3,9/9/91,24,f,27,Jane punched the wall,Sensible,edin_semantics,emo_sem_emo_sem,0.974094987497665,1,2,2,1,264290.16521369,50,B
7,3,9/9/91,24,f,28,Liz labeled the jar,Sensible,edin_semantics,emo_sem_emo_sem,1.25643047009362,2,1,1,1,264292.16457802,61,B
7,3,9/9/91,24,f,29,Will mashed the potatoes,Sensible,edin_semantics,emo_sem_emo_sem,1.09201024513459,2,2,2,1,264293.999350859,28,B
7,3,9/9/91,24,f,30,Ewan wrote the story,Sensible,edin_semantics,emo_sem_emo_sem,1.06818832008867,1,2,2,1,264295.810541673,74,B
7,3,9/9/91,24,f,31,The rose kissed Hugh,Non-sensible,edin_semantics,emo_sem_emo_sem,1.03176107001491,2,2,2,1,264297.58654643,98,B
7,3,9/9/91,24,f,32,Carl sold the sofa,Sensible,edin_semantics,emo_sem_emo_sem,1.7500824254239,1,2,2,1,264300.079857779,38,B
7,3,9/9/91,24,f,33,Kate built the house,Sensible,edin_semantics,emo_sem_emo_sem,1.03271297208266,1,2,2,1,264301.855767282,46,B
7,3,9/9/91,24,f,34,Jon jumped the fence,Sensible,edin_semantics,emo_sem_emo_sem,1.24470103601925,1,1,1,1,264303.843428476,17,B
7,3,9/9/91,24,f,35,Bill counted the sheets,Sensible,edin_semantics,emo_sem_emo_sem,1.03304652258521,2,2,2,1,264305.619362354,48,B
7,3,9/9/91,24,f,36,Liz sliced the tomato,Sensible,edin_semantics,emo_sem_emo_sem,1.09179600299103,1,1,1,1,264307.454099593,3,B
7,3,9/9/91,24,f,37,The box labeled Ian,Non-sensible,edin_semantics,emo_sem_emo_sem,1.26803418120835,1,2,2,1,264309.465254615,136,B
7,3,9/9/91,24,f,38,Will licked the spoon,Sensible,edin_semantics,emo_sem_emo_sem,1.35073355468921,2,1,1,1,264311.558737293,21,B
7,3,9/9/91,24,f,39,The ribbon cut Lucy,Non-sensible,edin_semantics,emo_sem_emo_sem,1.05676517524989,2,1,1,1,264313.358189372,95,B
7,3,9/9/91,24,f,40,The ice crushed Josh,Non-sensible,edin_semantics,emo_sem_emo_sem,1.13869513734244,1,1,1,1,264315.240013047,81,B
7,3,9/9/91,24,f,41,The stairs climbed Ben,Non-sensible,edin_semantics,emo_sem_emo_sem,0.997610302641988,2,1,1,1,264316.980627447,143,B
7,3,9/9/91,24,f,42,Luke climbed the hill,Sensible,edin_semantics,emo_sem_emo_sem,1.08015572960721,1,2,2,1,264318.803641346,68,B
7,3,9/9/91,24,f,43,Ryan painted the picture,Sensible,edin_semantics,emo_sem_emo_sem,1.77357753511751,2,1,1,1,264321.320537927,35,B
7,3,9/9/91,24,f,44,Phil typed the letter,Sensible,edin_semantics,emo_sem_emo_sem,0.868249128921889,1,1,1,1,264322.931830603,49,B
7,3,9/9/91,24,f,45,The sugar weighed Liz,Non-sensible,edin_semantics,emo_sem_emo_sem,0.85651456337655,1,1,1,1,264324.531334189,139,B
7,3,9/9/91,24,f,46,Josh squeezed the ball,Sensible,edin_semantics,emo_sem_emo_sem,0.98609928006772,2,1,1,1,264326.260211458,1,B
7,3,9/9/91,24,f,47,The nuts mixed Liam,Non-sensible,edin_semantics,emo_sem_emo_sem,0.985894980316516,2,1,1,1,264327.989090331,83,B
7,3,9/9/91,24,f,48,The hedge jumped Sara,Non-sensible,edin_semantics,emo_sem_emo_sem,1.51514063001378,1,2,2,1,264330.247283166,92,B
7,3,9/9/91,24,f,49,The problem solved Phil,Non-sensible,edin_semantics,emo_sem_emo_sem,1.38555944128893,2,1,1,1,264332.376021499,109,B
7,3,9/9/91,24,f,50,The internet searched Max,Non-sensible,edin_semantics,emo_sem_emo_sem,1.57389652490383,1,1,1,1,264334.692955155,85,B
7,3,9/9/91,24,f,51,Amy hugged the tree,Sensible,edin_semantics,emo_sem_emo_sem,1.03273478109622,1,1,1,1,264336.468875883,11,B
7,3,9/9/91,24,f,52,The cream whisked Tom,Non-sensible,edin_semantics,emo_sem_emo_sem,1.30303806834854,2,1,1,1,264338.515313178,137,B
7,3,9/9/91,24,f,53,The ticket took Tim,Non-sensible,edin_semantics,emo_sem_emo_sem,2.2208496046369,1,2,2,1,264341.479154372,128,B
7,3,9/9/91,24,f,54,The shoes counted Lucy,Non-sensible,edin_semantics,emo_sem_emo_sem,0.903678934497293,2,1,1,1,264343.125713285,123,B
7,3,9/9/91,24,f,55,Lara filed the papers,Sensible,edin_semantics,emo_sem_emo_sem,1.53896832809551,1,2,2,1,264345.407388402,24,B
7,3,9/9/91,24,f,56,The bowl dented Ian,Non-sensible,edin_semantics,emo_sem_emo_sem,1.52725044003455,1,2,2,1,264347.67733216,146,B
7,3,9/9/91,24,f,57,Dan carried the folder,Sensible,edin_semantics,emo_sem_emo_sem,1.05676164734177,2,2,2,1,264349.47674479,30,B
7,3,9/9/91,24,f,58,John described the pen,Sensible,edin_semantics,emo_sem_emo_sem,0.985935391276143,2,2,2,1,264351.205641944,42,B
7,3,9/9/91,24,f,59,The pillow hugged Kate,Non-sensible,edin_semantics,emo_sem_emo_sem,1.40955712180585,1,2,2,1,264353.357923494,86,B
7,3,9/9/91,24,f,60,The pot scrubbed Josh,Non-sensible,edin_semantics,emo_sem_emo_sem,1.24477255699458,1,1,1,1,264355.345585971,131,B
7,3,9/9/91,24,f,61,The gift posted Jack,Non-sensible,edin_semantics,emo_sem_emo_sem,1.115369368752,2,1,1,1,264357.203818641,111,B
7,3,9/9/91,24,f,62,Tim cleaned the floor,Sensible,edin_semantics,emo_sem_emo_sem,0.76236189721385,1,1,1,1,264358.709225047,5,B
7,3,9/9/91,24,f,63,Josh ironed the shirt,Sensible,edin_semantics,emo_sem_emo_sem,1.13915056217229,1,1,1,1,264360.591078869,55,B
7,3,9/9/91,24,f,64,The donut iced Joe,Non-sensible,edin_semantics,emo_sem_emo_sem,1.35068480495829,1,1,1,1,264362.684606449,119,B
7,3,9/9/91,24,f,65,The crate lifted Amy,Non-sensible,edin_semantics,emo_sem_emo_sem,1.59758214326575,1,2,2,1,264365.025035215,144,B
7,3,9/9/91,24,f,66,The rope pulled Andy,Non-sensible,edin_semantics,emo_sem_emo_sem,1.59721716196509,1,2,2,1,264367.365514656,148,B
7,3,9/9/91,24,f,67,The house dusted Alex,Non-sensible,edin_semantics,emo_sem_emo_sem,1.30319201480597,1,2,2,1,264369.411940726,122,B
7,3,9/9/91,24,f,68,The turnip mashed Ella,Non-sensible,edin_semantics,emo_sem_emo_sem,1.3034736084519,2,1,1,1,264371.45836872,103,B
7,3,9/9/91,24,f,69,Ryan entered the room,Sensible,edin_semantics,emo_sem_emo_sem,1.24436331610195,2,2,2,1,264373.446002332,58,B
7,3,9/9/91,24,f,70,Matt offered the money,Sensible,edin_semantics,emo_sem_emo_sem,1.62068501021713,2,1,1,1,264375.809999012,9,B
7,3,9/9/91,24,f,71,The door kicked Max,Non-sensible,edin_semantics,emo_sem_emo_sem,1.11510156618897,1,2,2,1,264377.668296467,114,B
7,3,9/9/91,24,f,72,The invite mailed Ian,Non-sensible,edin_semantics,emo_sem_emo_sem,0.997846995247528,2,1,1,1,264379.408957693,89,B
7,3,9/9/91,24,f,73,The bed sold Jay,Non-sensible,edin_semantics,emo_sem_emo_sem,1.11516987986397,1,1,1,1,264381.267172081,113,B
7,3,9/9/91,24,f,74,The sweets offered Tom,Non-sensible,edin_semantics,emo_sem_emo_sem,0.856377615127712,2,2,2,1,264382.866708061,84,B
7,3,9/9/91,24,f,75,The blanket stroked Ryan,Non-sensible,edin_semantics,emo_sem_emo_sem,1.53867550921859,1,2,2,1,264385.148385102,116,B
7,3,9/9/91,24,f,76,The plants watered Luke,Non-sensible,edin_semantics,emo_sem_emo_sem,1.09169593791012,1,1,1,1,264386.983123945,129,B
7,3,9/9/91,24,f,77,Luke swallowed the pill,Sensible,edin_semantics,emo_sem_emo_sem,1.13898250402417,1,2,2,1,264388.864906247,22,B
7,3,9/9/91,24,f,78,The rope pulled Emma,Non-sensible,edin_semantics,emo_sem_emo_sem,0.89176219899673,2,2,2,1,264390.499687617,120,B
7,3,9/9/91,24,f,79,The rice stored Fred,Non-sensible,edin_semantics,emo_sem_emo_sem,1.11518848169362,2,1,1,1,264392.357992449,127,B
7,3,9/9/91,24,f,80,Andy grated the cheese,Sensible,edin_semantics,emo_sem_emo_sem,1.16194842278492,1,1,1,1,264394.263270502,65,B
7,3,9/9/91,24,f,81,Jeff watered the garden,Sensible,edin_semantics,emo_sem_emo_sem,1.00922748405719,1,2,2,1,264396.015688743,54,B
7,3,9/9/91,24,f,82,The debt paid Zoe,Non-sensible,edin_semantics,emo_sem_emo_sem,1.50331273442134,1,2,2,1,264398.262080624,134,B
7,3,9/9/91,24,f,83,The trousers ironed Eve,Non-sensible,edin_semantics,emo_sem_emo_sem,1.09164943319047,1,2,2,1,264400.096818505,130,B
7,3,9/9/91,24,f,84,The garage tidied Erin,Non-sensible,edin_semantics,emo_sem_emo_sem,0.92668783001136,2,1,1,1,264401.766914221,77,B
7,3,9/9/91,24,f,85,The steak ate Mike,Non-sensible,edin_semantics,emo_sem_emo_sem,1.09177291108062,2,2,2,1,264403.601647291,142,B
7,3,9/9/91,24,f,86,Lily got the kettle,Sensible,edin_semantics,emo_sem_emo_sem,1.0799992174143,1,1,1,1,264405.424651247,13,B
7,3,9/9/91,24,f,87,Joe solved the puzzle,Sensible,edin_semantics,emo_sem_emo_sem,1.39733826648444,2,2,2,1,264407.565132484,34,B
7,3,9/9/91,24,f,88,Kate lifted the box,Sensible,edin_semantics,emo_sem_emo_sem,1.1503280341276,2,1,1,1,264409.458695856,69,B
7,3,9/9/91,24,f,89,Tom dialed the number,Sensible,edin_semantics,emo_sem_emo_sem,1.11505345790647,2,1,1,1,264411.316975671,63,B
7,3,9/9/91,24,f,90,The report wrote Alex,Non-sensible,edin_semantics,emo_sem_emo_sem,1.67941781313857,1,1,1,1,264413.739769298,149,B
7,3,9/9/91,24,f,91,The portrait painted Jay,Non-sensible,edin_semantics,emo_sem_emo_sem,1.56208691047505,2,2,2,1,264416.044970955,110,B
7,3,9/9/91,24,f,92,Tim ate the ham,Sensible,edin_semantics,emo_sem_emo_sem,1.53865754877916,1,1,1,1,264418.326592191,67,B
7,3,9/9/91,24,f,93,Jen weighed the flour,Sensible,edin_semantics,emo_sem_emo_sem,1.79700753826182,1,2,2,1,264420.867031349,64,B
7,3,9/9/91,24,f,94,The perfume sniffed Tim,Non-sensible,edin_semantics,emo_sem_emo_sem,1.70335263223387,1,1,1,1,264423.313379419,93,B
7,3,9/9/91,24,f,95,Jen searched the room,Sensible,edin_semantics,emo_sem_emo_sem,1.31479123583995,1,2,2,1,264425.371566353,10,B
7,3,9/9/91,24,f,96,Phil chopped the herbs,Sensible,edin_semantics,emo_sem_emo_sem,1.09182775451336,2,1,1,1,264427.206313214,27,B
7,3,9/9/91,24,f,97,The rules taught Josh,Non-sensible,edin_semantics,emo_sem_emo_sem,0.903716458939016,2,2,2,1,264428.852867316,90,B
7,3,9/9/91,24,f,98,The carrots chopped Fred,Non-sensible,edin_semantics,emo_sem_emo_sem,1.27974276838358,1,2,2,1,264430.875805011,102,B
7,3,9/9/91,24,f,99,Leah sucked the lolly,Sensible,edin_semantics,emo_sem_emo_sem,1.24450732016703,1,2,2,1,264432.863430285,12,B
7,3,9/9/91,24,f,100,The pan washed Beth,Non-sensible,edin_semantics,emo_sem_emo_sem,0.974335849517956,2,2,2,1,264434.580582931,132,B
7,3,9/9/91,24,f,101,Carl brushed the teeth,Sensible,edin_semantics,emo_sem_emo_sem,0.903308180219028,2,2,2,1,264436.227106244,72,B
7,3,9/9/91,24,f,102,Max kissed the mirror,Sensible,edin_semantics,emo_sem_emo_sem,1.84445222018985,2,1,1,1,264438.814577635,23,B
7,3,9/9/91,24,f,103,The kettle carried John,Non-sensible,edin_semantics,emo_sem_emo_sem,1.60919002379524,1,1,1,1,264441.166862841,105,B
7,3,9/9/91,24,f,104,Hugh pulled the lever,Sensible,edin_semantics,emo_sem_emo_sem,1.25654592987848,1,1,1,1,264443.166241283,45,B
7,3,9/9/91,24,f,105,Leo stored the wine,Sensible,edin_semantics,emo_sem_emo_sem,1.07972435891861,2,2,2,1,264444.989200659,52,B
7,3,9/9/91,24,f,106,The party cancelled Phil,Non-sensible,edin_semantics,emo_sem_emo_sem,1.63272073346889,1,2,2,1,264447.364909454,82,B
7,3,9/9/91,24,f,107,The report filed Ian,Non-sensible,edin_semantics,emo_sem_emo_sem,1.35064182826318,2,1,1,1,264449.458445051,99,B
7,3,9/9/91,24,f,108,Tim pulled the handle,Sensible,edin_semantics,emo_sem_emo_sem,1.46775079151848,1,1,1,1,264451.669543433,73,B
7,3,9/9/91,24,f,109,Amy measured the thread,Sensible,edin_semantics,emo_sem_emo_sem,1.47821690281853,2,1,1,1,264453.892396907,51,B
7,3,9/9/91,24,f,110,Jen fixed the laptop,Sensible,edin_semantics,emo_sem_emo_sem,1.17283916962333,1,1,1,1,264455.809475594,37,B
7,3,9/9/91,24,f,111,Jon cut the paper,Sensible,edin_semantics,emo_sem_emo_sem,1.11424427706515,2,2,2,1,264457.667738732,20,B
7,3,9/9/91,24,f,112,Ella watched the movie,Sensible,edin_semantics,emo_sem_emo_sem,0.984985413611867,1,1,1,1,264459.396632358,33,B
7,3,9/9/91,24,f,113,Erin crushed the garlic,Sensible,edin_semantics,emo_sem_emo_sem,1.13810019858647,1,2,2,1,264461.278388361,6,B
7,3,9/9/91,24,f,114,Sam tidied the room,Sensible,edin_semantics,emo_sem_emo_sem,0.996996120549738,2,2,2,1,264463.019053114,2,B
7,3,9/9/91,24,f,115,The hotline dialed Hugh,Non-sensible,edin_semantics,emo_sem_emo_sem,1.02064645953942,2,2,2,1,264464.783245691,138,B
7,3,9/9/91,24,f,116,The beer drank Jack,Non-sensible,edin_semantics,emo_sem_emo_sem,0.97340030426858,1,1,1,1,264466.500370754,135,B
7,3,9/9/91,24,f,117,Rob mailed the parcel,Sensible,edin_semantics,emo_sem_emo_sem,1.22069854469737,1,2,2,1,264468.464502843,14,B
7,3,9/9/91,24,f,118,Erin posted the card,Sensible,edin_semantics,emo_sem_emo_sem,0.938624771020841,2,2,2,1,264470.1463312,36,B
7,3,9/9/91,24,f,119,The gum swallowed Owen,Non-sensible,edin_semantics,emo_sem_emo_sem,1.39693960937439,2,1,1,1,264472.286850603,97,B
7,3,9/9/91,24,f,120,Beth wiped the table,Sensible,edin_semantics,emo_sem_emo_sem,1.0202971935505,2,2,2,1,264474.051039331,40,B
7,3,9/9/91,24,f,121,The curtains measured Rob,Non-sensible,edin_semantics,emo_sem_emo_sem,1.40845672570867,1,2,2,1,264476.203332748,126,B
7,3,9/9/91,24,f,122,Mark washed the dishes,Sensible,edin_semantics,emo_sem_emo_sem,1.06701255432563,1,1,1,1,264478.014557237,57,B
7,3,9/9/91,24,f,123,Sean read the book,Sensible,edin_semantics,emo_sem_emo_sem,1.11431323224679,2,2,2,1,264479.872801773,4,B
7,3,9/9/91,24,f,124,Joe wore the jumper,Sensible,edin_semantics,emo_sem_emo_sem,2.13740583613981,2,1,1,1,264482.754305368,25,B
7,3,9/9/91,24,f,125,The radio fixed Luke,Non-sensible,edin_semantics,emo_sem_emo_sem,0.961083308095112,2,2,2,1,264484.459687848,112,B
7,3,9/9/91,24,f,126,The candy sucked Sam,Non-sensible,edin_semantics,emo_sem_emo_sem,1.51391066232463,1,1,1,1,264486.717908907,87,B
7,3,9/9/91,24,f,127,Mary iced the cake,Sensible,edin_semantics,emo_sem_emo_sem,0.749796662479639,2,2,2,1,264488.211444761,44,B
7,3,9/9/91,24,f,128,The fat chewed Adam,Non-sensible,edin_semantics,emo_sem_emo_sem,1.20762592821848,1,2,2,1,264490.163807326,106,B
7,3,9/9/91,24,f,129,Dan whisked the eggs,Sensible,edin_semantics,emo_sem_emo_sem,0.855233280104585,1,2,2,1,264491.763357738,62,B
7,3,9/9/91,24,f,130,Phil sniffed the milk,Sensible,edin_semantics,emo_sem_emo_sem,0.820257937186398,2,2,2,1,264493.327582259,18,B
7,3,9/9/91,24,f,131,Ryan carried the gun,Sensible,edin_semantics,emo_sem_emo_sem,1.33757722977316,1,1,1,1,264495.409329089,75,B
7,3,9/9/91,24,f,132,Rob stroked the fur,Sensible,edin_semantics,emo_sem_emo_sem,1.5731069080648,2,1,1,1,264497.726234522,41,B
7,3,9/9/91,24,f,133,Ben chewed the toffee,Sensible,edin_semantics,emo_sem_emo_sem,1.32682439329801,2,1,1,1,264499.796235882,31,B
7,3,9/9/91,24,f,134,The onion sliced Liam,Non-sensible,edin_semantics,emo_sem_emo_sem,1.6199774981942,1,2,2,1,264502.160214922,78,B
7,3,9/9/91,24,f,135,The radio got Ben,Non-sensible,edin_semantics,emo_sem_emo_sem,0.99714429397136,2,2,2,1,264503.900864602,88,B
7,3,9/9/91,24,f,136,The wallet carried Leo,Non-sensible,edin_semantics,emo_sem_emo_sem,1.12641374120722,2,2,2,1,264505.770889246,150,B
7,3,9/9/91,24,f,137,The hospital visited Tom,Non-sensible,edin_semantics,emo_sem_emo_sem,1.78365076228511,1,1,1,1,264508.299547013,91,B
7,3,9/9/91,24,f,138,Kate served the dish,Sensible,edin_semantics,emo_sem_emo_sem,1.11334369052202,2,2,2,1,264510.157822017,70,B
7,3,9/9/91,24,f,139,The car lent Fred,Non-sensible,edin_semantics,emo_sem_emo_sem,1.39696590858512,1,2,2,1,264512.298367078,94,B
7,3,9/9/91,24,f,140,Matt kicked the bike,Sensible,edin_semantics,emo_sem_emo_sem,1.46757118741516,2,1,1,1,264514.509490476,39,B
7,3,9/9/91,24,f,141,The socks knitted Ryan,Non-sensible,edin_semantics,emo_sem_emo_sem,1.21953143842984,1,1,1,1,264516.473577984,141,B
7,3,9/9/91,24,f,142,The dessert served Fred,Non-sensible,edin_semantics,emo_sem_emo_sem,1.3725285185501,2,1,1,1,264518.590566356,145,B
7,3,9/9/91,24,f,143,The desk wiped Lucy,Non-sensible,edin_semantics,emo_sem_emo_sem,0.949352591123898,1,1,1,1,264520.284198555,115,B
7,3,9/9/91,24,f,144,The poster read Luke,Non-sensible,edin_semantics,emo_sem_emo_sem,1.10237564973067,2,1,1,1,264522.130655286,79,B
7,3,9/9/91,24,f,145,The plate licked Jane,Non-sensible,edin_semantics,emo_sem_emo_sem,1.63150680187391,1,2,2,1,264524.506449393,96,B
7,3,9/9/91,24,f,146,Lily dented the lorry,Sensible,edin_semantics,emo_sem_emo_sem,0.855464199790731,1,1,2,0,264526.105960036,71,B
7,3,9/9/91,24,f,147,The hair trimmed Bill,Non-sensible,edin_semantics,emo_sem_emo_sem,1.20805665740045,2,1,1,1,264528.058305602,107,B
7,3,9/9/91,24,f,148,Jake dusted the shelf,Sensible,edin_semantics,emo_sem_emo_sem,1.25424314808333,1,1,1,1,264530.057718039,47,B
7,3,9/9/91,24,f,149,The trophy polished Anna,Non-sensible,edin_semantics,emo_sem_emo_sem,1.45468074077507,2,2,2,1,264532.25706165,104,B
7,3,9/9/91,24,f,150,The monitor punched Erin,Non-sensible,edin_semantics,emo_sem_emo_sem,1.09064557426609,2,1,1,1,264534.091778043,125,B
7,3,9/9/91,24,f,24,Rose built the shed,Sensible,edin_semantics,emo_sem_emo_sem,1.52068815327948,2,1,1,1,264539.1843983,121,A
7,3,9/9/91,24,f,25,The room tidied Sam,Non-sensible,edin_semantics,emo_sem_emo_sem,1.00852414139081,2,2,2,1,264540.93678896,2,A
7,3,9/9/91,24,f,26,Adam chewed the fat,Sensible,edin_semantics,emo_sem_emo_sem,0.926961726392619,1,2,2,1,264542.606860943,106,A
7,3,9/9/91,24,f,27,The handle pulled Tim,Non-sensible,edin_semantics,emo_sem_emo_sem,0.950077742920257,2,1,1,1,264544.300492821,73,A
7,3,9/9/91,24,f,28,The trolley pushed Matt,Non-sensible,edin_semantics,emo_sem_emo_sem,1.07904378749663,1,2,2,1,264546.123456046,26,A
7,3,9/9/91,24,f,29,The fur stroked Rob,Non-sensible,edin_semantics,emo_sem_emo_sem,0.879603318579029,1,1,1,1,264547.746488418,41,A
7,3,9/9/91,24,f,30,The ball squeezed Josh,Non-sensible,edin_semantics,emo_sem_emo_sem,0.855890438891947,2,1,1,1,264549.34601638,1,A
7,3,9/9/91,24,f,31,Ben climbed the stairs,Sensible,edin_semantics,emo_sem_emo_sem,1.13857647031546,2,1,1,1,264551.227800606,143,A
7,3,9/9/91,24,f,32,Ryan knitted the socks,Sensible,edin_semantics,emo_sem_emo_sem,1.87960171495797,2,1,1,1,264553.850547857,141,A
7,3,9/9/91,24,f,33,The box lifted Kate,Non-sensible,edin_semantics,emo_sem_emo_sem,1.12692144373432,2,1,1,1,264555.720534656,69,A
7,3,9/9/91,24,f,34,Fred served the dessert,Sensible,edin_semantics,emo_sem_emo_sem,1.03276428754907,2,1,1,1,264557.496470778,145,A
7,3,9/9/91,24,f,35,The papers filed Lara,Non-sensible,edin_semantics,emo_sem_emo_sem,1.09144673711853,1,2,2,1,264559.33126671,24,A
7,3,9/9/91,24,f,36,The plans cancelled Ian,Non-sensible,edin_semantics,emo_sem_emo_sem,1.10163959348574,1,1,1,1,264561.177748136,7,A
7,3,9/9/91,24,f,37,Alex dusted the house,Sensible,edin_semantics,emo_sem_emo_sem,0.760892029677052,2,2,2,1,264562.683188217,122,A
7,3,9/9/91,24,f,38,The lorry dented Lily,Non-sensible,edin_semantics,emo_sem_emo_sem,0.725351575121749,2,1,1,1,264564.153321971,71,A
7,3,9/9/91,24,f,39,Andy pulled the rope,Sensible,edin_semantics,emo_sem_emo_sem,1.2431926819263,1,2,2,1,264566.140974186,148,A
7,3,9/9/91,24,f,40,Fred stored the rice,Sensible,edin_semantics,emo_sem_emo_sem,1.12559686304303,1,1,1,1,264568.011009414,127,A
7,3,9/9/91,24,f,41,The towels passed Phil,Non-sensible,edin_semantics,emo_sem_emo_sem,0.890472256287467,2,1,1,1,264569.645816763,43,A
7,3,9/9/91,24,f,42,Hugh dialed the hotline,Sensible,edin_semantics,emo_sem_emo_sem,1.25448144430993,2,2,2,1,264571.645228559,138,A
7,3,9/9/91,24,f,43,Fred chopped the carrots,Sensible,edin_semantics,emo_sem_emo_sem,1.07834525563521,1,2,2,1,264573.468162919,102,A
7,3,9/9/91,24,f,44,The sheets counted Bill,Non-sensible,edin_semantics,emo_sem_emo_sem,1.02049411670305,1,2,2,1,264575.232363193,48,A
7,3,9/9/91,24,f,45,Phil cancelled the party,Sensible,edin_semantics,emo_sem_emo_sem,0.773668620095123,2,2,2,1,264576.749557404,82,A
7,3,9/9/91,24,f,46,Joe iced the donut,Sensible,edin_semantics,emo_sem_emo_sem,0.85636831424199,1,1,1,1,264578.34906933,119,A
7,3,9/9/91,24,f,47,Max searched the internet,Sensible,edin_semantics,emo_sem_emo_sem,1.4204376055277,1,1,1,1,264580.513107575,85,A
7,3,9/9/91,24,f,48,The hill climbed Luke,Non-sensible,edin_semantics,emo_sem_emo_sem,1.10267680743709,1,2,2,1,264582.359637751,68,A
7,3,9/9/91,24,f,49,The sofa sold Carl,Non-sensible,edin_semantics,emo_sem_emo_sem,1.54973912495188,2,2,2,1,264584.653030435,38,A
7,3,9/9/91,24,f,50,The bushes trimmed Jon,Non-sensible,edin_semantics,emo_sem_emo_sem,1.65583386359503,1,2,2,1,264587.052344347,32,A
7,3,9/9/91,24,f,51,The shirt ironed Josh,Non-sensible,edin_semantics,emo_sem_emo_sem,1.4443355416297,2,1,1,1,264589.239935112,55,A
7,3,9/9/91,24,f,52,Bill trimmed the hair,Sensible,edin_semantics,emo_sem_emo_sem,1.0909720690106,1,1,1,1,264591.07464092,107,A
7,3,9/9/91,24,f,53,The bill paid Mike,Non-sensible,edin_semantics,emo_sem_emo_sem,1.22043651505373,1,1,1,1,264593.038761463,59,A
7,3,9/9/91,24,f,54,The number dialed Tom,Non-sensible,edin_semantics,emo_sem_emo_sem,1.29026179871289,1,1,1,1,264595.073397482,63,A
7,3,9/9/91,24,f,55,The pen described John,Non-sensible,edin_semantics,emo_sem_emo_sem,1.14857625222066,1,2,2,1,264596.966998058,42,A
7,3,9/9/91,24,f,56,Lucy cut the ribbon,Sensible,edin_semantics,emo_sem_emo_sem,1.11405986204045,1,1,1,1,264598.825205711,95,A
7,3,9/9/91,24,f,57,Hugh kissed the rose,Sensible,edin_semantics,emo_sem_emo_sem,0.761690306011587,2,2,2,1,264600.330688128,98,A
7,3,9/9/91,24,f,58,The spoon licked Will,Non-sensible,edin_semantics,emo_sem_emo_sem,1.3969315913273,1,1,1,1,264602.471231905,21,A
7,3,9/9/91,24,f,59,The money offered Matt,Non-sensible,edin_semantics,emo_sem_emo_sem,0.973136991786305,1,1,1,1,264604.188337404,9,A
7,3,9/9/91,24,f,60,The eggs whisked Dan,Non-sensible,edin_semantics,emo_sem_emo_sem,1.07953064300818,1,2,2,1,264606.011286838,62,A
7,3,9/9/91,24,f,61,The pill swallowed Luke,Non-sensible,edin_semantics,emo_sem_emo_sem,1.17347451933892,1,2,2,1,264607.928386693,22,A
7,3,9/9/91,24,f,62,Lucy wiped the desk,Sensible,edin_semantics,emo_sem_emo_sem,1.0092874589609,2,1,1,1,264609.680812632,115,A
7,3,9/9/91,24,f,63,Ian filed the report,Sensible,edin_semantics,emo_sem_emo_sem,2.03235440514982,1,1,1,1,264612.456436371,99,A
7,3,9/9/91,24,f,64,The movie watched Ella,Non-sensible,edin_semantics,emo_sem_emo_sem,1.45583373529371,1,1,1,1,264614.65580115,33,A
7,3,9/9/91,24,f,65,Josh taught the rules,Sensible,edin_semantics,emo_sem_emo_sem,0.961999930732418,2,2,2,1,264616.361141936,90,A
7,3,9/9/91,24,f,66,The potatoes mashed Will,Non-sensible,edin_semantics,emo_sem_emo_sem,1.02058391872561,2,2,2,1,264618.125340927,28,A
7,3,9/9/91,24,f,67,The card posted Erin,Non-sensible,edin_semantics,emo_sem_emo_sem,1.25561968563125,1,2,2,1,264620.124754648,36,A
7,3,9/9/91,24,f,68,The dishes washed Mark,Non-sensible,edin_semantics,emo_sem_emo_sem,2.51424100564327,1,1,1,1,264623.382603029,57,A
7,3,9/9/91,24,f,69,Jay painted the portrait,Sensible,edin_semantics,emo_sem_emo_sem,1.76175220526056,1,2,2,1,264625.887712767,110,A
7,3,9/9/91,24,f,70,The mirror kissed Max,Non-sensible,edin_semantics,emo_sem_emo_sem,1.30313107772963,2,1,1,1,264627.934150383,23,A
7,3,9/9/91,24,f,71,Phil solved the problem,Sensible,edin_semantics,emo_sem_emo_sem,1.39729753485881,2,1,1,1,264630.074674917,109,A
7,3,9/9/91,24,f,72,Kate hugged the pillow,Sensible,edin_semantics,emo_sem_emo_sem,1.16172584198648,2,2,2,1,264631.980000115,86,A
7,3,9/9/91,24,f,73,The folder carried Dan,Non-sensible,edin_semantics,emo_sem_emo_sem,1.59656128607458,1,2,2,1,264634.320456143,30,A
7,3,9/9/91,24,f,74,Emma pulled the rope,Sensible,edin_semantics,emo_sem_emo_sem,1.07798316085245,2,2,2,1,264636.143442139,120,A
7,3,9/9/91,24,f,75,Ian labeled the box,Sensible,edin_semantics,emo_sem_emo_sem,1.51380931428866,2,2,2,1,264638.401581094,136,A
7,3,9/9/91,24,f,76,Anna polished the trophy,Sensible,edin_semantics,emo_sem_emo_sem,1.00784068339271,2,2,2,1,264640.153956679,104,A
7,3,9/9/91,24,f,77,Ian pushed the button,Sensible,edin_semantics,emo_sem_emo_sem,1.67861376388464,2,1,1,1,264642.576785586,101,A
7,3,9/9/91,24,f,78,Dan brushed the hair,Sensible,edin_semantics,emo_sem_emo_sem,1.93738806812325,2,1,1,1,264645.258337161,147,A
7,3,9/9/91,24,f,79,Jack cleaned the bath,Sensible,edin_semantics,emo_sem_emo_sem,0.855632578663062,2,2,2,1,264646.857840106,80,A
7,3,9/9/91,24,f,80,The dish served Kate,Non-sensible,edin_semantics,emo_sem_emo_sem,0.949244507937692,1,2,2,1,264648.551494756,70,A
7,3,9/9/91,24,f,81,Ryan stroked the blanket,Sensible,edin_semantics,emo_sem_emo_sem,1.76083173404913,1,2,2,1,264651.056599683,116,A
7,3,9/9/91,24,f,82,The teeth brushed Carl,Non-sensible,edin_semantics,emo_sem_emo_sem,1.40787557797739,2,2,2,1,264653.208885402,72,A
7,3,9/9/91,24,f,83,Eve typed the message,Sensible,edin_semantics,emo_sem_emo_sem,1.17279106134083,1,2,2,1,264655.125982371,124,A
7,3,9/9/91,24,f,84,The bucket lent Max,Non-sensible,edin_semantics,emo_sem_emo_sem,1.3845568652614,1,1,1,1,264657.254754379,19,A
7,3,9/9/91,24,f,85,The puzzle solved Joe,Non-sensible,edin_semantics,emo_sem_emo_sem,1.01988250040449,2,2,2,1,264659.018931881,34,A
7,3,9/9/91,24,f,86,Jack drank the beer,Sensible,edin_semantics,emo_sem_emo_sem,1.12605132575845,1,1,1,1,264660.888921567,135,A
7,3,9/9/91,24,f,87,Tom grated the carrots,Sensible,edin_semantics,emo_sem_emo_sem,0.938355685444549,1,2,2,1,264662.570771733,140,A
7,3,9/9/91,24,f,88,The house built Kate,Non-sensible,edin_semantics,emo_sem_emo_sem,1.59668251889525,1,2,2,1,264664.911254702,46,A
7,3,9/9/91,24,f,89,Erin tidied the garage,Sensible,edin_semantics,emo_sem_emo_sem,1.20904191449517,1,1,1,1,264666.863619832,77,A
7,3,9/9/91,24,f,90,Owen swallowed the gum,Sensible,edin_semantics,emo_sem_emo_sem,1.34986439888598,2,1,1,1,264668.957078136,97,A
7,3,9/9/91,24,f,91,The story wrote Ewan,Non-sensible,edin_semantics,emo_sem_emo_sem,0.997241472650785,1,2,2,1,264670.69773872,74,A
7,3,9/9/91,24,f,92,Lucy counted the shoes,Sensible,edin_semantics,emo_sem_emo_sem,0.891086438379716,1,1,1,1,264672.332561142,123,A
7,3,9/9/91,24,f,93,The museum visited Mary,Non-sensible,edin_semantics,emo_sem_emo_sem,1.13773842446972,2,2,2,1,264674.21433735,16,A
7,3,9/9/91,24,f,94,The room searched Jen,Non-sensible,edin_semantics,emo_sem_emo_sem,1.03210263862275,1,2,2,1,264675.990268021,10,A
7,3,9/9/91,24,f,95,The book read Sean,Non-sensible,edin_semantics,emo_sem_emo_sem,1.13853285211371,2,2,2,1,264677.87264013,4,A
7,3,9/9/91,24,f,96,The jar labeled Liz,Non-sensible,edin_semantics,emo_sem_emo_sem,1.32586543541402,1,1,1,1,264679.942004216,61,A
7,3,9/9/91,24,f,97,Alex wrote the report,Sensible,edin_semantics,emo_sem_emo_sem,1.67913461587159,1,1,1,1,264682.364807144,149,A
7,3,9/9/91,24,f,98,Amy lifted the crate,Sensible,edin_semantics,emo_sem_emo_sem,1.16139710223069,1,2,2,1,264684.270136191,144,A
7,3,9/9/91,24,f,99,The parcel mailed Rob,Non-sensible,edin_semantics,emo_sem_emo_sem,0.984412283927668,1,2,2,1,264685.999020837,14,A
7,3,9/9/91,24,f,100,The tree hugged Amy,Non-sensible,edin_semantics,emo_sem_emo_sem,0.656104232009966,1,1,1,1,264687.3986064,11,A
7,3,9/9/91,24,f,101,Leo carried the wallet,Sensible,edin_semantics,emo_sem_emo_sem,0.938127973058727,2,2,2,1,264689.080446303,150,A
7,3,9/9/91,24,f,102,Josh crushed the ice,Sensible,edin_semantics,emo_sem_emo_sem,1.51443921169266,1,1,1,1,264691.338605784,81,A
7,3,9/9/91,24,f,103,The juice drank Matt,Non-sensible,edin_semantics,emo_sem_emo_sem,1.11447006510571,2,2,2,1,264693.196859301,60,A
7,3,9/9/91,24,f,104,The bike kicked Matt,Non-sensible,edin_semantics,emo_sem_emo_sem,1.39712081715697,1,1,1,1,264695.337406285,39,A
7,3,9/9/91,24,f,105,The flour weighed Jen,Non-sensible,edin_semantics,emo_sem_emo_sem,1.12630084721604,1,2,2,1,264697.207435099,64,A
7,3,9/9/91,24,f,106,John carried the kettle,Sensible,edin_semantics,emo_sem_emo_sem,1.02080649958225,2,1,1,1,264698.971589189,105,A
7,3,9/9/91,24,f,107,The lolly sucked Leah,Non-sensible,edin_semantics,emo_sem_emo_sem,1.13838050939376,2,2,2,1,264700.853372132,12,A
7,3,9/9/91,24,f,108,Jane licked the plate,Sensible,edin_semantics,emo_sem_emo_sem,0.973725516116247,2,2,2,1,264702.570505534,96,A
7,3,9/9/91,24,f,109,The jumper wore Joe,Non-sensible,edin_semantics,emo_sem_emo_sem,1.51442862785188,1,1,1,1,264704.828664053,25,A
7,3,9/9/91,24,f,110,The lesson taught Eve,Non-sensible,edin_semantics,emo_sem_emo_sem,1.30278245318914,1,1,1,1,264706.875095896,15,A
7,3,9/9/91,24,f,111,Jay sold the bed,Sensible,edin_semantics,emo_sem_emo_sem,1.22080759011442,2,1,1,1,264708.839254925,113,A
7,3,9/9/91,24,f,112,The lever pulled Hugh,Non-sensible,edin_semantics,emo_sem_emo_sem,1.29136893001851,2,1,1,1,264710.873919809,45,A
7,3,9/9/91,24,f,113,Jack posted the gift,Sensible,edin_semantics,emo_sem_emo_sem,1.3267618525424,2,1,1,1,264712.943854459,111,A
7,3,9/9/91,24,f,114,Sam sucked the candy,Sensible,edin_semantics,emo_sem_emo_sem,1.13850238360465,2,1,1,1,264714.825621045,87,A
7,3,9/9/91,24,f,115,The ham ate Tim,Non-sensible,edin_semantics,emo_sem_emo_sem,0.950034124834929,2,1,1,1,264716.519244906,67,A
7,3,9/9/91,24,f,116,Tom whisked the cream,Sensible,edin_semantics,emo_sem_emo_sem,1.15003457380226,1,1,1,1,264718.412824955,137,A
7,3,9/9/91,24,f,117,The fruits mixed Jack,Non-sensible,edin_semantics,emo_sem_emo_sem,1.57333878986537,1,2,2,1,264720.729789401,8,A
7,3,9/9/91,24,f,118,Luke read the poster,Sensible,edin_semantics,emo_sem_emo_sem,1.22042464837432,1,1,1,1,264722.693886211,79,A
7,3,9/9/91,24,f,119,The milk sniffed Phil,Non-sensible,edin_semantics,emo_sem_emo_sem,0.879257259832229,2,2,2,1,264724.316939109,18,A
7,3,9/9/91,24,f,120,Erin described the church,Sensible,edin_semantics,emo_sem_emo_sem,1.07760374707868,1,1,1,1,264726.139910673,117,A
7,3,9/9/91,24,f,121,The photo took Beth,Non-sensible,edin_semantics,emo_sem_emo_sem,1.26648285036208,1,1,1,1,264728.15106409,53,A
7,3,9/9/91,24,f,122,Tom offered the sweets,Sensible,edin_semantics,emo_sem_emo_sem,1.57210176630178,1,2,2,1,264730.468032065,84,A
7,3,9/9/91,24,f,123,Josh scrubbed the pot,Sensible,edin_semantics,emo_sem_emo_sem,1.81994427141035,2,1,1,1,264733.03192977,131,A
7,3,9/9/91,24,f,124,Zoe paid the debt,Sensible,edin_semantics,emo_sem_emo_sem,1.11368622124428,1,2,2,1,264734.890232677,134,A
7,3,9/9/91,24,f,125,The bowl scrubbed Liz,Non-sensible,edin_semantics,emo_sem_emo_sem,1.56113949854625,2,2,2,1,264737.195384943,56,A
7,3,9/9/91,24,f,126,The shelf dusted Jake,Non-sensible,edin_semantics,emo_sem_emo_sem,1.78431593911955,1,1,1,1,264739.724067726,47,A
7,3,9/9/91,24,f,127,Liz weighed the sugar,Sensible,edin_semantics,emo_sem_emo_sem,1.2078055323218,2,1,1,1,264741.676406878,139,A
7,3,9/9/91,24,f,128,The picture painted Ryan,Non-sensible,edin_semantics,emo_sem_emo_sem,1.03148781514028,2,1,1,1,264743.452335303,35,A
7,3,9/9/91,24,f,129,The letter typed Phil,Non-sensible,edin_semantics,emo_sem_emo_sem,1.09048040263588,2,1,1,1,264745.287093389,49,A
7,3,9/9/91,24,f,130,The herbs chopped Phil,Non-sensible,edin_semantics,emo_sem_emo_sem,1.02010508126114,2,1,1,1,264747.051245234,27,A
7,3,9/9/91,24,f,131,The floor cleaned Tim,Non-sensible,edin_semantics,emo_sem_emo_sem,1.26771859108703,1,1,1,1,264749.062408915,5,A
7,3,9/9/91,24,f,132,Erin punched the monitor,Sensible,edin_semantics,emo_sem_emo_sem,0.879144365782849,1,1,1,1,264750.685467266,125,A
7,3,9/9/91,24,f,133,The kettle got Lily,Non-sensible,edin_semantics,emo_sem_emo_sem,0.85556362348143,2,1,1,1,264752.284986568,13,A
7,3,9/9/91,24,f,134,The wine stored Leo,Non-sensible,edin_semantics,emo_sem_emo_sem,1.09037809242727,2,2,2,1,264754.119709696,52,A
7,3,9/9/91,24,f,135,Ian mailed the invite,Sensible,edin_semantics,emo_sem_emo_sem,2.67919811879983,1,1,1,1,264757.542226861,89,A
7,3,9/9/91,24,f,136,The coins polished Jon,Non-sensible,edin_semantics,emo_sem_emo_sem,3.14925522007979,1,1,1,1,264761.435161297,29,A
7,3,9/9/91,24,f,137,The scarf knitted Tom,Non-sensible,edin_semantics,emo_sem_emo_sem,1.96140467119403,1,2,2,1,264764.140245827,66,A
7,3,9/9/91,24,f,138,Tim sniffed the perfume,Sensible,edin_semantics,emo_sem_emo_sem,5.73635778174503,1,1,1,1,264770.620641392,93,A
7,3,9/9/91,24,f,139,Ella mashed the turnip,Sensible,edin_semantics,emo_sem_emo_sem,3.88954729493707,2,1,1,1,264775.25455072,103,A
7,3,9/9/91,24,f,140,Adam watched the opera,Sensible,edin_semantics,emo_sem_emo_sem,2.94828394649085,1,2,2,1,264778.947501706,108,A
7,3,9/9/91,24,f,141,The toffee chewed Ben,Non-sensible,edin_semantics,emo_sem_emo_sem,0.878614854300395,1,1,1,1,264780.570537607,31,A
7,3,9/9/91,24,f,142,The cheese grated Andy,Non-sensible,edin_semantics,emo_sem_emo_sem,1.12622162897605,1,1,1,1,264782.440599775,65,A
7,3,9/9/91,24,f,143,The fence jumped Jon,Non-sensible,edin_semantics,emo_sem_emo_sem,1.07924359710887,1,1,1,1,264784.263562679,17,A
7,3,9/9/91,24,f,144,Max kicked the door,Sensible,edin_semantics,emo_sem_emo_sem,1.60780386457918,2,2,2,1,264786.615834736,114,A
7,3,9/9/91,24,f,145,Tom visited the hospital,Sensible,edin_semantics,emo_sem_emo_sem,1.06746124400524,1,1,1,1,264788.427031323,91,A
7,3,9/9/91,24,f,146,Liam sliced the onion,Sensible,edin_semantics,emo_sem_emo_sem,0.914581868739333,1,2,2,1,264790.085372268,78,A
7,3,9/9/91,24,f,147,Eve ironed the trousers,Sensible,edin_semantics,emo_sem_emo_sem,1.23079582600622,2,2,2,1,264792.061234111,130,A
7,3,9/9/91,24,f,148,Ian dented the bowl,Sensible,edin_semantics,emo_sem_emo_sem,0.913741898606531,1,2,2,1,264793.719600394,146,A
7,3,9/9/91,24,f,149,Tim took the ticket,Sensible,edin_semantics,emo_sem_emo_sem,0.842695627419744,1,2,2,1,264795.307324514,128,A
7,3,9/9/91,24,f,150,Luke watered the plants,Sensible,edin_semantics,emo_sem_emo_sem,1.05471736716572,1,1,1,1,264797.10678878,129,A
7,3,9/9/91,24,f,151,Sara jumped the hedge,Sensible,edin_semantics,emo_sem_emo_sem,0.690611641970463,1,2,2,1,264798.541676823,92,A
7,3,9/9/91,24,f,152,The garlic crushed Erin,Non-sensible,edin_semantics,emo_sem_emo_sem,0.867599026008975,1,2,2,1,264800.152939671,6,A
7,3,9/9/91,24,f,153,Jay squeezed the lemon,Sensible,edin_semantics,emo_sem_emo_sem,1.2559474632144,2,2,2,1,264802.152314905,76,A
7,3,9/9/91,24,f,154,Leo passed the salt,Sensible,edin_semantics,emo_sem_emo_sem,1.043953626242,2,2,2,1,264803.940029853,118,A
7,3,9/9/91,24,f,155,The garden watered Jeff,Non-sensible,edin_semantics,emo_sem_emo_sem,1.1617890241323,1,2,2,1,264805.84535441,54,A
7,3,9/9/91,24,f,156,The wall punched Jane,Non-sensible,edin_semantics,emo_sem_emo_sem,1.0205749385641,1,2,2,1,264807.609523254,50,A
7,3,9/9/91,24,f,157,The thread measured Amy,Non-sensible,edin_semantics,emo_sem_emo_sem,0.985254499071743,1,1,1,1,264809.338403088,51,A
7,3,9/9/91,24,f,158,Mike ate the steak,Sensible,edin_semantics,emo_sem_emo_sem,1.09069464472122,2,2,2,1,264811.173148987,142,A
7,3,9/9/91,24,f,159,Luke fixed the radio,Sensible,edin_semantics,emo_sem_emo_sem,0.620476861891802,2,2,2,1,264812.537417318,112,A
7,3,9/9/91,24,f,160,Ben got the radio,Sensible,edin_semantics,emo_sem_emo_sem,0.691020562080666,2,2,2,1,264813.97231851,88,A
7,3,9/9/91,24,f,161,Kate wore the dress,Sensible,edin_semantics,emo_sem_emo_sem,1.06765046983492,2,2,2,1,264815.783512531,100,A
7,3,9/9/91,24,f,162,Fred lent the car,Sensible,edin_semantics,emo_sem_emo_sem,1.37378093681764,2,2,2,1,264817.900533617,94,A
7,3,9/9/91,24,f,163,The cake iced Mary,Non-sensible,edin_semantics,emo_sem_emo_sem,1.04434683104046,1,2,2,1,264819.688213606,44,A
7,3,9/9/91,24,f,164,The laptop fixed Jen,Non-sensible,edin_semantics,emo_sem_emo_sem,1.44393816741649,1,1,1,1,264821.875802125,37,A
7,3,9/9/91,24,f,165,The room entered Ryan,Non-sensible,edin_semantics,emo_sem_emo_sem,0.903182457259391,2,2,2,1,264823.522356868,58,A
7,3,9/9/91,24,f,166,The gun carried Ryan,Non-sensible,edin_semantics,emo_sem_emo_sem,1.1379337440012,2,1,1,1,264825.404143981,75,A
7,3,9/9/91,24,f,167,Joe entered the office,Sensible,edin_semantics,emo_sem_emo_sem,1.25582687184215,1,1,2,0,264827.403544552,133,A
7,3,9/9/91,24,f,168,The tomato sliced Liz,Non-sensible,edin_semantics,emo_sem_emo_sem,0.914531515387353,2,1,1,1,264829.06190891,3,A
7,3,9/9/91,24,f,169,The table wiped Beth,Non-sensible,edin_semantics,emo_sem_emo_sem,1.11436358554056,2,2,2,1,264830.920156333,40,A
7,3,9/9/91,24,f,170,The paper cut Jon,Non-sensible,edin_semantics,emo_sem_emo_sem,1.02080393384676,1,2,2,1,264832.684297915,20,A
7,3,9/9/91,24,f,171,Rob measured the curtains,Sensible,edin_semantics,emo_sem_emo_sem,1.23236126865959,2,2,2,1,264834.660207866,126,A
7,3,9/9/91,24,f,172,Liam mixed the nuts,Sensible,edin_semantics,emo_sem_emo_sem,1.43233541847439,2,1,1,1,264836.835982602,83,A
7,3,9/9/91,24,f,173,Beth washed the pan,Sensible,edin_semantics,emo_sem_emo_sem,0.79696648591198,2,2,2,1,264838.376742481,132,A
