subject_column,AssignedList_column,subject_dob_column,subject_age_column,subject_gender_column,trialnum_column,Stim_column,Type_column,Experiment_column,OrderGroup_column,ReactionTime_column,StimSide_column,StimPosition_column,Response_column,Valid_column,TrialEndSecs_column,PairID_column,List_column
70,2,27/1/94,22,f,1,Liam mixed the nuts,Sensible,edin_semantics,sem_emo_sem_emo,4.2846075737616,1,1,1,1,603200.149602564,83,A
70,2,27/1/94,22,f,2,Erin described the church,Sensible,edin_semantics,sem_emo_sem_emo,1.05600630922709,2,1,1,1,603201.949048874,117,A
70,2,27/1/94,22,f,3,The shirt ironed Josh,Non-sensible,edin_semantics,sem_emo_sem_emo,4.80806436715648,2,1,1,1,603207.500272932,55,A
70,2,27/1/94,22,f,4,Hugh kissed the rose,Sensible,edin_semantics,sem_emo_sem_emo,0.786176854977384,2,2,2,1,603209.029216597,98,A
70,2,27/1/94,22,f,5,The toffee chewed Ben,Non-sensible,edin_semantics,sem_emo_sem_emo,1.0566493520746,1,1,1,1,603210.828643664,31,A
70,2,27/1/94,22,f,6,Kate hugged the pillow,Sensible,edin_semantics,sem_emo_sem_emo,0.785612388513982,1,2,2,1,603212.357603044,86,A
70,2,27/1/94,22,f,7,The wine stored Leo,Non-sensible,edin_semantics,sem_emo_sem_emo,0.680002617067657,1,2,2,1,603213.780715962,52,A
70,2,27/1/94,22,f,8,The ham ate Tim,Non-sensible,edin_semantics,sem_emo_sem_emo,2.80872665322386,2,1,1,1,603217.332561254,67,A
70,2,27/1/94,22,f,9,Sam sucked the candy,Sensible,edin_semantics,sem_emo_sem_emo,1.07989543257281,1,1,1,1,603219.155549669,87,A
70,2,27/1/94,22,f,10,Leo carried the wallet,Sensible,edin_semantics,sem_emo_sem_emo,2.89121574547607,2,2,2,1,603222.789719203,150,A
70,2,27/1/94,22,f,11,The cake iced Mary,Non-sensible,edin_semantics,sem_emo_sem_emo,0.832662601605989,2,2,2,1,603224.365670426,44,A
70,2,27/1/94,22,f,12,Dan brushed the hair,Sensible,edin_semantics,sem_emo_sem_emo,1.00947373744566,1,1,1,1,603226.118151192,147,A
70,2,27/1/94,22,f,13,The handle pulled Tim,Non-sensible,edin_semantics,sem_emo_sem_emo,0.891770269721746,2,1,1,1,603227.752882628,73,A
70,2,27/1/94,22,f,14,Tom offered the sweets,Sensible,edin_semantics,sem_emo_sem_emo,0.644889589049853,2,2,2,1,603229.140720234,84,A
70,2,27/1/94,22,f,15,Luke read the poster,Sensible,edin_semantics,sem_emo_sem_emo,0.538767307531089,2,1,1,1,603230.422651723,79,A
70,2,27/1/94,22,f,16,Fred served the dessert,Sensible,edin_semantics,sem_emo_sem_emo,0.573970457771793,2,1,1,1,603231.739878088,145,A
70,2,27/1/94,22,f,17,Ian mailed the invite,Sensible,edin_semantics,sem_emo_sem_emo,0.644759697606787,2,1,1,1,603233.127741351,89,A
70,2,27/1/94,22,f,18,The tree hugged Amy,Non-sensible,edin_semantics,sem_emo_sem_emo,0.597984982538037,2,1,1,1,603234.468462996,11,A
70,2,27/1/94,22,f,19,Mike ate the steak,Sensible,edin_semantics,sem_emo_sem_emo,0.926966043538414,1,2,2,1,603236.138555376,142,A
70,2,27/1/94,22,f,20,Sara jumped the hedge,Sensible,edin_semantics,sem_emo_sem_emo,0.633158626733348,1,2,2,1,603237.514608459,92,A
70,2,27/1/94,22,f,21,Jay squeezed the lemon,Sensible,edin_semantics,sem_emo_sem_emo,0.562664769706316,1,2,2,1,603238.82008077,76,A
70,2,27/1/94,22,f,22,The paper cut Jon,Non-sensible,edin_semantics,sem_emo_sem_emo,0.527041476685554,1,2,2,1,603240.090266864,20,A
70,2,27/1/94,22,f,23,The spoon licked Will,Non-sensible,edin_semantics,sem_emo_sem_emo,1.6210751933977,1,1,1,1,603242.45425704,21,A
70,2,27/1/94,22,f,24,The book read Sean,Non-sensible,edin_semantics,sem_emo_sem_emo,0.750253368518315,1,2,2,1,603243.947906471,4,A
70,2,27/1/94,22,f,25,Ryan knitted the socks,Sensible,edin_semantics,sem_emo_sem_emo,2.10321880644187,1,1,1,1,603246.794088047,141,A
70,2,27/1/94,22,f,26,Tim took the ticket,Sensible,edin_semantics,sem_emo_sem_emo,0.985842472757213,2,2,2,1,603248.522979883,128,A
70,2,27/1/94,22,f,27,Ian filed the report,Sensible,edin_semantics,sem_emo_sem_emo,3.47914520511404,1,1,1,1,603252.745239238,99,A
70,2,27/1/94,22,f,28,The card posted Erin,Non-sensible,edin_semantics,sem_emo_sem_emo,0.938471219269559,2,2,2,1,603254.427073805,36,A
70,2,27/1/94,22,f,29,The movie watched Ella,Non-sensible,edin_semantics,sem_emo_sem_emo,0.785508475382812,2,1,1,1,603255.956014263,33,A
70,2,27/1/94,22,f,30,The towels passed Phil,Non-sensible,edin_semantics,sem_emo_sem_emo,0.632725975941867,1,1,1,1,603257.332047461,43,A
70,2,27/1/94,22,f,31,The plans cancelled Ian,Non-sensible,edin_semantics,sem_emo_sem_emo,0.632961704744957,1,1,1,1,603258.708046022,7,A
70,2,27/1/94,22,f,32,The box lifted Kate,Non-sensible,edin_semantics,sem_emo_sem_emo,0.83285567490384,2,1,1,1,603260.284105968,69,A
70,2,27/1/94,22,f,33,Erin tidied the garage,Sensible,edin_semantics,sem_emo_sem_emo,0.597519939183258,2,1,1,1,603261.624819275,77,A
70,2,27/1/94,22,f,34,The lever pulled Hugh,Non-sensible,edin_semantics,sem_emo_sem_emo,0.797759003587998,1,1,1,1,603263.165546179,45,A
70,2,27/1/94,22,f,35,Josh crushed the ice,Sensible,edin_semantics,sem_emo_sem_emo,0.609159496380016,1,1,1,1,603264.518095323,81,A
70,2,27/1/94,22,f,36,The laptop fixed Jen,Non-sensible,edin_semantics,sem_emo_sem_emo,0.703503990429454,2,1,1,1,603265.964675297,37,A
70,2,27/1/94,22,f,37,Eve ironed the trousers,Sensible,edin_semantics,sem_emo_sem_emo,1.53831926221028,2,2,2,1,603268.246368171,130,A
70,2,27/1/94,22,f,38,Tim sniffed the perfume,Sensible,edin_semantics,sem_emo_sem_emo,0.774328188505024,1,1,1,1,603269.76357478,93,A
70,2,27/1/94,22,f,39,The scarf knitted Tom,Non-sensible,edin_semantics,sem_emo_sem_emo,0.927163606742397,2,2,2,1,603271.433612317,66,A
70,2,27/1/94,22,f,40,The kettle got Lily,Non-sensible,edin_semantics,sem_emo_sem_emo,0.715214106021449,2,1,1,1,603272.891972965,13,A
70,2,27/1/94,22,f,41,The tomato sliced Liz,Non-sensible,edin_semantics,sem_emo_sem_emo,0.64477605430875,2,1,1,1,603274.279794213,3,A
70,2,27/1/94,22,f,42,The parcel mailed Rob,Non-sensible,edin_semantics,sem_emo_sem_emo,0.844411524361931,1,2,2,1,603275.867539259,14,A
70,2,27/1/94,22,f,43,The museum visited Mary,Non-sensible,edin_semantics,sem_emo_sem_emo,1.3857769818278,2,2,2,1,603277.996319742,16,A
70,2,27/1/94,22,f,44,Kate wore the dress,Sensible,edin_semantics,sem_emo_sem_emo,0.809594841324724,1,2,2,1,603279.548770874,100,A
70,2,27/1/94,22,f,45,Zoe paid the debt,Sensible,edin_semantics,sem_emo_sem_emo,0.738515350269154,2,2,2,1,603281.030665609,134,A
70,2,27/1/94,22,f,46,Max kicked the door,Sensible,edin_semantics,sem_emo_sem_emo,0.926945838145912,1,2,2,1,603282.700738104,114,A
70,2,27/1/94,22,f,47,The jumper wore Joe,Non-sensible,edin_semantics,sem_emo_sem_emo,0.927200489561073,2,1,1,1,603284.370827277,25,A
70,2,27/1/94,22,f,48,Emma pulled the rope,Sensible,edin_semantics,sem_emo_sem_emo,0.985621817642823,1,2,2,1,603286.099705964,120,A
70,2,27/1/94,22,f,49,Erin punched the monitor,Sensible,edin_semantics,sem_emo_sem_emo,0.70350623538252,1,1,1,1,603287.546326349,125,A
70,2,27/1/94,22,f,50,Anna polished the trophy,Sensible,edin_semantics,sem_emo_sem_emo,0.762488502194174,1,2,2,1,603289.051756133,104,A
70,2,27/1/94,22,f,51,The puzzle solved Joe,Non-sensible,edin_semantics,sem_emo_sem_emo,0.868064277339727,2,2,2,1,603290.663013456,34,A
70,2,27/1/94,22,f,52,The herbs chopped Phil,Non-sensible,edin_semantics,sem_emo_sem_emo,0.668328422005288,2,1,1,1,603292.074350831,27,A
70,2,27/1/94,22,f,53,The house built Kate,Non-sensible,edin_semantics,sem_emo_sem_emo,0.903417524416,1,2,2,1,603293.720970703,46,A
70,2,27/1/94,22,f,54,The fruits mixed Jack,Non-sensible,edin_semantics,sem_emo_sem_emo,1.13895306841005,1,2,2,1,603295.602663961,8,A
70,2,27/1/94,22,f,55,The fur stroked Rob,Non-sensible,edin_semantics,sem_emo_sem_emo,0.586113224271685,1,1,1,1,603296.931667473,41,A
70,2,27/1/94,22,f,56,The shelf dusted Jake,Non-sensible,edin_semantics,sem_emo_sem_emo,0.727029097033665,1,1,1,1,603298.401799494,47,A
70,2,27/1/94,22,f,57,The garden watered Jeff,Non-sensible,edin_semantics,sem_emo_sem_emo,0.585867553134449,1,2,2,1,603299.730803647,54,A
70,2,27/1/94,22,f,58,Jane licked the plate,Sensible,edin_semantics,sem_emo_sem_emo,0.939095019013621,2,2,2,1,603301.412675738,96,A
70,2,27/1/94,22,f,59,The milk sniffed Phil,Non-sensible,edin_semantics,sem_emo_sem_emo,0.820841516950168,1,2,2,1,603302.976875793,18,A
70,2,27/1/94,22,f,60,The hill climbed Luke,Non-sensible,edin_semantics,sem_emo_sem_emo,0.797480939538218,2,2,2,1,603304.517627072,68,A
70,2,27/1/94,22,f,61,The bucket lent Max,Non-sensible,edin_semantics,sem_emo_sem_emo,0.774308945401572,2,1,1,1,603306.034822777,19,A
70,2,27/1/94,22,f,62,The photo took Beth,Non-sensible,edin_semantics,sem_emo_sem_emo,0.762317879358307,1,1,1,1,603307.540182002,53,A
70,2,27/1/94,22,f,63,Alex dusted the house,Sensible,edin_semantics,sem_emo_sem_emo,0.703208607621491,1,2,2,1,603308.986802387,122,A
70,2,27/1/94,22,f,64,The folder carried Dan,Non-sensible,edin_semantics,sem_emo_sem_emo,0.55044086126145,1,2,2,1,603310.280514229,30,A
70,2,27/1/94,22,f,65,The room searched Jen,Non-sensible,edin_semantics,sem_emo_sem_emo,1.23278473177925,2,2,2,1,603312.256443899,10,A
70,2,27/1/94,22,f,66,The juice drank Matt,Non-sensible,edin_semantics,sem_emo_sem_emo,0.609528965549544,2,2,2,1,603313.608930503,60,A
70,2,27/1/94,22,f,67,Jack posted the gift,Sensible,edin_semantics,sem_emo_sem_emo,0.950419950298965,1,1,1,1,603315.302503088,111,A
70,2,27/1/94,22,f,68,Josh taught the rules,Sensible,edin_semantics,sem_emo_sem_emo,1.12669933307916,1,2,2,1,603317.172516058,90,A
70,2,27/1/94,22,f,69,The number dialed Tom,Non-sensible,edin_semantics,sem_emo_sem_emo,0.985483587486669,1,1,1,1,603318.901377427,63,A
70,2,27/1/94,22,f,70,Fred stored the rice,Sensible,edin_semantics,sem_emo_sem_emo,1.06830270041246,2,1,1,1,603320.712641935,127,A
70,2,27/1/94,22,f,71,The bushes trimmed Jon,Non-sensible,edin_semantics,sem_emo_sem_emo,0.76251640485134,2,2,2,1,603322.218052796,32,A
70,2,27/1/94,22,f,72,Andy pulled the rope,Sensible,edin_semantics,sem_emo_sem_emo,0.64445854187943,2,2,2,1,603323.605852235,148,A
70,2,27/1/94,22,f,73,Josh scrubbed the pot,Sensible,edin_semantics,sem_emo_sem_emo,0.821497068041936,2,1,1,1,603325.170082759,131,A
70,2,27/1/94,22,f,74,The mirror kissed Max,Non-sensible,edin_semantics,sem_emo_sem_emo,0.679810505942442,2,1,1,1,603326.593158152,23,A
70,2,27/1/94,22,f,75,Ryan stroked the blanket,Sensible,edin_semantics,sem_emo_sem_emo,0.974193293834105,1,2,2,1,603328.310300104,116,A
70,2,27/1/94,22,f,76,Ian pushed the button,Sensible,edin_semantics,sem_emo_sem_emo,0.738501880085096,2,1,1,1,603329.792189386,101,A
70,2,27/1/94,22,f,77,Fred chopped the carrots,Sensible,edin_semantics,sem_emo_sem_emo,0.809251350583509,1,2,2,1,603331.344691833,102,A
70,2,27/1/94,22,f,78,Max searched the internet,Sensible,edin_semantics,sem_emo_sem_emo,0.703420282574371,2,1,1,1,603332.791281108,85,A
70,2,27/1/94,22,f,79,The potatoes mashed Will,Non-sensible,edin_semantics,sem_emo_sem_emo,1.39727253606543,2,2,2,1,603334.931801534,28,A
70,2,27/1/94,22,f,80,Lucy wiped the desk,Sensible,edin_semantics,sem_emo_sem_emo,0.703257357003167,1,1,1,1,603336.378410052,115,A
70,2,27/1/94,22,f,81,The money offered Matt,Non-sensible,edin_semantics,sem_emo_sem_emo,0.656218689749949,2,1,1,1,603337.777971564,9,A
70,2,27/1/94,22,f,82,Eve typed the message,Sensible,edin_semantics,sem_emo_sem_emo,0.844437502673827,1,2,2,1,603339.365720137,124,A
70,2,27/1/94,22,f,83,Rob measured the curtains,Sensible,edin_semantics,sem_emo_sem_emo,0.903418165748008,2,2,2,1,603341.01227362,126,A
70,2,27/1/94,22,f,84,The eggs whisked Dan,Non-sensible,edin_semantics,sem_emo_sem_emo,0.856399703887291,1,2,2,1,603342.611755401,62,A
70,2,27/1/94,22,f,85,Leo passed the salt,Sensible,edin_semantics,sem_emo_sem_emo,0.597357975668274,1,2,2,1,603343.952549529,118,A
70,2,27/1/94,22,f,86,The floor cleaned Tim,Non-sensible,edin_semantics,sem_emo_sem_emo,0.973994127009064,2,1,1,1,603345.669678652,5,A
70,2,27/1/94,22,f,87,Tom visited the hospital,Sensible,edin_semantics,sem_emo_sem_emo,0.985705846105702,2,1,1,1,603347.398547717,91,A
70,2,27/1/94,22,f,88,The sheets counted Bill,Non-sensible,edin_semantics,sem_emo_sem_emo,1.29134813870769,2,2,2,1,603349.43323515,48,A
70,2,27/1/94,22,f,89,The coins polished Jon,Non-sensible,edin_semantics,sem_emo_sem_emo,0.809269310790114,1,1,1,1,603350.985700715,29,A
70,2,27/1/94,22,f,90,Liz weighed the sugar,Sensible,edin_semantics,sem_emo_sem_emo,0.856222987407818,2,1,1,1,603352.585189872,139,A
70,2,27/1/94,22,f,91,John carried the kettle,Sensible,edin_semantics,sem_emo_sem_emo,0.608987590763718,2,1,1,1,603353.937711434,105,A
70,2,27/1/94,22,f,92,Tom whisked the cream,Sensible,edin_semantics,sem_emo_sem_emo,0.797425134456716,1,1,1,1,603355.478422624,137,A
70,2,27/1/94,22,f,93,The thread measured Amy,Non-sensible,edin_semantics,sem_emo_sem_emo,0.691574181779288,2,1,1,1,603356.913297293,51,A
70,2,27/1/94,22,f,94,The trolley pushed Matt,Non-sensible,edin_semantics,sem_emo_sem_emo,1.03282918338664,1,2,2,1,603358.689235494,26,A
70,2,27/1/94,22,f,95,The story wrote Ewan,Non-sensible,edin_semantics,sem_emo_sem_emo,1.45605274941772,2,2,2,1,603360.888591617,74,A
70,2,27/1/94,22,f,96,The gun carried Ryan,Non-sensible,edin_semantics,sem_emo_sem_emo,0.820859798113815,1,1,1,1,603362.452753186,75,A
70,2,27/1/94,22,f,97,The room tidied Sam,Non-sensible,edin_semantics,sem_emo_sem_emo,0.66792110807728,2,2,2,1,603363.864075487,2,A
70,2,27/1/94,22,f,98,Ella mashed the turnip,Sensible,edin_semantics,sem_emo_sem_emo,0.550477423355915,2,1,1,1,603365.157765841,103,A
70,2,27/1/94,22,f,99,Luke fixed the radio,Sensible,edin_semantics,sem_emo_sem_emo,1.30315318726934,1,2,2,1,603367.204239401,112,A
70,2,27/1/94,22,f,100,Fred lent the car,Sensible,edin_semantics,sem_emo_sem_emo,1.15024175844155,1,2,2,1,603369.097778439,94,A
70,2,27/1/94,22,f,101,Phil cancelled the party,Sensible,edin_semantics,sem_emo_sem_emo,0.868368961033411,2,2,2,1,603370.709062062,82,A
70,2,27/1/94,22,f,102,The cheese grated Andy,Non-sensible,edin_semantics,sem_emo_sem_emo,0.691603367216885,1,1,1,1,603372.143864248,65,A
70,2,27/1/94,22,f,103,Phil solved the problem,Sensible,edin_semantics,sem_emo_sem_emo,0.656315547064878,1,1,1,1,603373.543488301,109,A
70,2,27/1/94,22,f,104,The picture painted Ryan,Non-sensible,edin_semantics,sem_emo_sem_emo,0.785604370525107,2,1,1,1,603375.072413364,35,A
70,2,27/1/94,22,f,105,The sofa sold Carl,Non-sensible,edin_semantics,sem_emo_sem_emo,0.609065846307203,2,2,2,1,603376.424924663,38,A
70,2,27/1/94,22,f,106,Jay sold the bed,Sensible,edin_semantics,sem_emo_sem_emo,0.820858835941181,2,1,1,1,603377.989171863,113,A
70,2,27/1/94,22,f,107,The wall punched Jane,Non-sensible,edin_semantics,sem_emo_sem_emo,0.621058515971527,2,2,2,1,603379.353441386,50,A
70,2,27/1/94,22,f,108,Hugh dialed the hotline,Sensible,edin_semantics,sem_emo_sem_emo,0.903321949997917,1,2,2,1,603381.000059654,138,A
70,2,27/1/94,22,f,109,The garlic crushed Erin,Non-sensible,edin_semantics,sem_emo_sem_emo,0.820677308598533,2,2,2,1,603382.564219619,6,A
70,2,27/1/94,22,f,110,The bowl scrubbed Liz,Non-sensible,edin_semantics,sem_emo_sem_emo,0.667957028723322,2,2,2,1,603383.975567578,56,A
70,2,27/1/94,22,f,111,Amy lifted the crate,Sensible,edin_semantics,sem_emo_sem_emo,1.6089555186918,1,2,2,1,603386.327784456,144,A
70,2,27/1/94,22,f,112,Rose built the shed,Sensible,edin_semantics,sem_emo_sem_emo,0.738134656101465,1,1,1,1,603387.809657702,121,A
70,2,27/1/94,22,f,113,Bill trimmed the hair,Sensible,edin_semantics,sem_emo_sem_emo,0.63295432832092,1,1,1,1,603389.185734839,107,A
70,2,27/1/94,22,f,114,Jack drank the beer,Sensible,edin_semantics,sem_emo_sem_emo,1.02116877934895,2,1,1,1,603390.949901347,135,A
70,2,27/1/94,22,f,115,Lucy cut the ribbon,Sensible,edin_semantics,sem_emo_sem_emo,0.608640892780386,2,1,1,1,603392.302456905,95,A
70,2,27/1/94,22,f,116,The lorry dented Lily,Non-sensible,edin_semantics,sem_emo_sem_emo,0.691312795272097,2,1,1,1,603393.737330291,71,A
70,2,27/1/94,22,f,117,Luke watered the plants,Sensible,edin_semantics,sem_emo_sem_emo,0.773760194075294,1,1,1,1,603395.254456079,129,A
70,2,27/1/94,22,f,118,Owen swallowed the gum,Sensible,edin_semantics,sem_emo_sem_emo,0.503613868961111,2,1,1,1,603396.501129575,97,A
70,2,27/1/94,22,f,119,The dishes washed Mark,Non-sensible,edin_semantics,sem_emo_sem_emo,0.561915247933939,2,1,1,1,603397.806645183,57,A
70,2,27/1/94,22,f,120,Joe iced the donut,Sensible,edin_semantics,sem_emo_sem_emo,0.856409646221437,1,1,1,1,603399.406167054,119,A
70,2,27/1/94,22,f,121,Lucy counted the shoes,Sensible,edin_semantics,sem_emo_sem_emo,0.702895264490508,1,1,1,1,603400.852736444,123,A
70,2,27/1/94,22,f,122,Jay painted the portrait,Sensible,edin_semantics,sem_emo_sem_emo,0.820864608860575,1,2,2,1,603402.416985569,110,A
70,2,27/1/94,22,f,123,Ben got the radio,Sensible,edin_semantics,sem_emo_sem_emo,0.679811788839288,1,2,2,1,603403.840078281,88,A
70,2,27/1/94,22,f,124,The ball squeezed Josh,Non-sensible,edin_semantics,sem_emo_sem_emo,0.608989515108988,1,1,1,1,603405.19257611,1,A
70,2,27/1/94,22,f,125,Adam watched the opera,Sensible,edin_semantics,sem_emo_sem_emo,0.962215698091313,2,2,2,1,603406.897966253,108,A
70,2,27/1/94,22,f,126,The lolly sucked Leah,Non-sensible,edin_semantics,sem_emo_sem_emo,0.80929913779255,1,2,2,1,603408.450402952,12,A
70,2,27/1/94,22,f,127,The bike kicked Matt,Non-sensible,edin_semantics,sem_emo_sem_emo,0.762032118160278,1,1,1,1,603409.955855507,39,A
70,2,27/1/94,22,f,128,The papers filed Lara,Non-sensible,edin_semantics,sem_emo_sem_emo,0.644417489762418,1,2,2,1,603411.343671303,24,A
70,2,27/1/94,22,f,129,Adam chewed the fat,Sensible,edin_semantics,sem_emo_sem_emo,0.562057326664217,1,2,2,1,603412.649146501,106,A
70,2,27/1/94,22,f,130,The room entered Ryan,Non-sensible,edin_semantics,sem_emo_sem_emo,0.879808709956706,2,2,2,1,603414.272172311,58,A
70,2,27/1/94,22,f,131,The pill swallowed Luke,Non-sensible,edin_semantics,sem_emo_sem_emo,0.526728454395197,2,2,2,1,603415.542345577,22,A
70,2,27/1/94,22,f,132,Beth washed the pan,Sensible,edin_semantics,sem_emo_sem_emo,0.550341117428616,2,2,2,1,603416.836082114,132,A
70,2,27/1/94,22,f,133,Ian labeled the box,Sensible,edin_semantics,sem_emo_sem_emo,0.762224870617501,2,2,2,1,603418.341514464,136,A
70,2,27/1/94,22,f,134,Liam sliced the onion,Sensible,edin_semantics,sem_emo_sem_emo,0.679818523931317,2,2,2,1,603419.764619684,78,A
70,2,27/1/94,22,f,135,The dish served Kate,Non-sensible,edin_semantics,sem_emo_sem_emo,0.456457176827826,2,2,2,1,603420.964248419,70,A
70,2,27/1/94,22,f,136,Ben climbed the stairs,Sensible,edin_semantics,sem_emo_sem_emo,0.632547014276497,2,1,1,1,603422.340284183,143,A
70,2,27/1/94,22,f,137,The flour weighed Jen,Non-sensible,edin_semantics,sem_emo_sem_emo,0.820990010164678,1,2,2,1,603423.904517593,64,A
70,2,27/1/94,22,f,138,The letter typed Phil,Non-sensible,edin_semantics,sem_emo_sem_emo,0.503229646827094,1,1,2,0,603425.151175373,49,A
70,2,27/1/94,22,f,139,The jar labeled Liz,Non-sensible,edin_semantics,sem_emo_sem_emo,0.985723165096715,2,1,1,1,603426.880053419,61,A
70,2,27/1/94,22,f,140,Joe entered the office,Sensible,edin_semantics,sem_emo_sem_emo,0.855996879981831,1,1,1,1,603428.479565348,133,A
70,2,27/1/94,22,f,141,Alex wrote the report,Sensible,edin_semantics,sem_emo_sem_emo,1.03264348674566,2,1,1,1,603430.25548623,149,A
70,2,27/1/94,22,f,142,The fence jumped Jon,Non-sensible,edin_semantics,sem_emo_sem_emo,0.632282099919394,2,1,1,1,603431.631530333,17,A
70,2,27/1/94,22,f,143,Jack cleaned the bath,Sensible,edin_semantics,sem_emo_sem_emo,0.902942217886448,1,2,2,1,603433.278124226,80,A
70,2,27/1/94,22,f,144,The lesson taught Eve,Non-sensible,edin_semantics,sem_emo_sem_emo,1.85587468580343,2,1,1,1,603435.877280798,15,A
70,2,27/1/94,22,f,145,The bill paid Mike,Non-sensible,edin_semantics,sem_emo_sem_emo,0.950651509920135,2,1,1,1,603437.570903416,59,A
70,2,27/1/94,22,f,146,Tom grated the carrots,Sensible,edin_semantics,sem_emo_sem_emo,0.726772200549021,2,2,2,1,603439.041055963,140,A
70,2,27/1/94,22,f,147,The pen described John,Non-sensible,edin_semantics,sem_emo_sem_emo,0.938397133024409,1,2,2,1,603440.722902397,42,A
70,2,27/1/94,22,f,148,The teeth brushed Carl,Non-sensible,edin_semantics,sem_emo_sem_emo,0.973788224975578,1,2,2,1,603442.440008108,72,A
70,2,27/1/94,22,f,149,Ian dented the bowl,Sensible,edin_semantics,sem_emo_sem_emo,0.902962743886746,2,2,2,1,603444.086594304,146,A
70,2,27/1/94,22,f,150,The table wiped Beth,Non-sensible,edin_semantics,sem_emo_sem_emo,0.632748746895231,2,2,2,1,603445.46262205,40,A
70,2,27/1/94,22,f,151,The debt paid Zoe,Non-sensible,edin_semantics,sem_emo_sem_emo,4.64864265033975,1,1,1,1,603499.645974584,134,B
70,2,27/1/94,22,f,152,Phil passed the towels,Sensible,edin_semantics,sem_emo_sem_emo,0.702043433091603,1,2,2,1,603501.092601062,43,B
70,2,27/1/94,22,f,153,The desk wiped Lucy,Non-sensible,edin_semantics,sem_emo_sem_emo,1.00780920265242,2,2,2,1,603502.844992027,115,B
70,2,27/1/94,22,f,154,Mary visited the museum,Sensible,edin_semantics,sem_emo_sem_emo,0.620062681380659,2,1,1,1,603504.209302281,16,B
70,2,27/1/94,22,f,155,The rope pulled Andy,Non-sensible,edin_semantics,sem_emo_sem_emo,0.855365062365308,2,1,1,1,603505.808794967,148,B
70,2,27/1/94,22,f,156,Jon polished the coins,Sensible,edin_semantics,sem_emo_sem_emo,0.972557944362052,2,2,2,1,603507.525914468,29,B
70,2,27/1/94,22,f,157,Matt drank the juice,Sensible,edin_semantics,sem_emo_sem_emo,0.655872312607244,2,1,1,1,603508.925510618,60,B
70,2,27/1/94,22,f,158,The hedge jumped Sara,Non-sensible,edin_semantics,sem_emo_sem_emo,0.632254517986439,2,1,1,1,603510.301534515,92,B
70,2,27/1/94,22,f,159,The hotline dialed Hugh,Non-sensible,edin_semantics,sem_emo_sem_emo,0.714561762288213,1,1,1,1,603511.759948082,138,B
70,2,27/1/94,22,f,160,The dress wore Kate,Non-sensible,edin_semantics,sem_emo_sem_emo,0.597067082999274,1,1,1,1,603513.100690894,100,B
70,2,27/1/94,22,f,161,The rice stored Fred,Non-sensible,edin_semantics,sem_emo_sem_emo,0.844435257604346,2,2,2,1,603514.688469295,127,B
70,2,27/1/94,22,f,162,Mark washed the dishes,Sensible,edin_semantics,sem_emo_sem_emo,0.454586419160478,2,2,2,1,603515.888054412,57,B
70,2,27/1/94,22,f,163,The onion sliced Liam,Non-sensible,edin_semantics,sem_emo_sem_emo,0.57303972938098,2,1,1,1,603517.205296492,78,B
70,2,27/1/94,22,f,164,Josh squeezed the ball,Sensible,edin_semantics,sem_emo_sem_emo,0.549909749533981,2,2,2,1,603518.499038162,1,B
70,2,27/1/94,22,f,165,The box labeled Ian,Non-sensible,edin_semantics,sem_emo_sem_emo,0.67957958788611,1,1,1,1,603519.92214242,136,B
70,2,27/1/94,22,f,166,Jen weighed the flour,Sensible,edin_semantics,sem_emo_sem_emo,0.679351235390641,1,1,1,1,603521.34522519,64,B
70,2,27/1/94,22,f,167,Liz scrubbed the bowl,Sensible,edin_semantics,sem_emo_sem_emo,0.644347252091393,2,1,1,1,603522.733022706,56,B
70,2,27/1/94,22,f,168,Josh ironed the shirt,Sensible,edin_semantics,sem_emo_sem_emo,0.572258777101524,2,2,2,1,603524.050254844,55,B
70,2,27/1/94,22,f,169,The hair brushed Dan,Non-sensible,edin_semantics,sem_emo_sem_emo,0.4895426153671,2,2,2,1,603525.285187756,147,B
70,2,27/1/94,22,f,170,The pillow hugged Kate,Non-sensible,edin_semantics,sem_emo_sem_emo,0.525475723436102,2,1,1,1,603526.555406884,86,B
70,2,27/1/94,22,f,171,The report wrote Alex,Non-sensible,edin_semantics,sem_emo_sem_emo,0.713750662282109,1,2,2,1,603528.013750534,149,B
70,2,27/1/94,22,f,172,Phil sniffed the milk,Sensible,edin_semantics,sem_emo_sem_emo,0.53818680497352,1,1,1,1,603529.295709926,18,B
70,2,27/1/94,22,f,173,The door kicked Max,Non-sensible,edin_semantics,sem_emo_sem_emo,1.12640491232742,2,1,1,1,603531.165721613,114,B
70,2,27/1/94,22,f,174,The crate lifted Amy,Non-sensible,edin_semantics,sem_emo_sem_emo,0.796901719993912,2,1,1,1,603532.706429916,144,B
70,2,27/1/94,22,f,175,Tom dialed the number,Sensible,edin_semantics,sem_emo_sem_emo,0.691393296001479,1,2,2,1,603534.141311641,63,B
70,2,27/1/94,22,f,176,The trousers ironed Eve,Non-sensible,edin_semantics,sem_emo_sem_emo,0.526396830216981,1,1,1,1,603535.411495169,130,B
70,2,27/1/94,22,f,177,Max lent the bucket,Sensible,edin_semantics,sem_emo_sem_emo,0.678966371924616,2,2,2,1,603536.834571204,19,B
70,2,27/1/94,22,f,178,Amy hugged the tree,Sensible,edin_semantics,sem_emo_sem_emo,0.596010311739519,2,2,2,1,603538.175348975,11,B
70,2,27/1/94,22,f,179,The church described Erin,Non-sensible,edin_semantics,sem_emo_sem_emo,0.749347014818341,1,2,2,1,603539.669002575,117,B
70,2,27/1/94,22,f,180,The fat chewed Adam,Non-sensible,edin_semantics,sem_emo_sem_emo,0.679518651100807,1,1,1,1,603541.09208759,106,B
70,2,27/1/94,22,f,181,The bed sold Jay,Non-sensible,edin_semantics,sem_emo_sem_emo,0.644289843388833,1,2,2,1,603542.479911404,113,B
70,2,27/1/94,22,f,182,The bath cleaned Jack,Non-sensible,edin_semantics,sem_emo_sem_emo,0.597141810692847,2,1,1,1,603543.82069142,80,B
70,2,27/1/94,22,f,183,The hair trimmed Bill,Non-sensible,edin_semantics,sem_emo_sem_emo,0.679294468136504,1,2,2,1,603545.243775473,107,B
70,2,27/1/94,22,f,184,Mary iced the cake,Sensible,edin_semantics,sem_emo_sem_emo,0.57360868609976,1,1,1,1,603546.561039042,44,B
70,2,27/1/94,22,f,185,The sugar weighed Liz,Non-sensible,edin_semantics,sem_emo_sem_emo,1.38479012751486,1,2,2,1,603548.689785528,139,B
70,2,27/1/94,22,f,186,The steak ate Mike,Non-sensible,edin_semantics,sem_emo_sem_emo,0.832714878953993,2,1,1,1,603550.265756635,142,B
70,2,27/1/94,22,f,187,Matt offered the money,Sensible,edin_semantics,sem_emo_sem_emo,1.19649851124268,1,2,2,1,603552.206344284,9,B
70,2,27/1/94,22,f,188,The perfume sniffed Tim,Non-sensible,edin_semantics,sem_emo_sem_emo,0.595860215020366,1,2,2,1,603553.547126544,93,B
70,2,27/1/94,22,f,189,Andy grated the cheese,Sensible,edin_semantics,sem_emo_sem_emo,0.807575911167078,2,2,2,1,603555.099560999,65,B
70,2,27/1/94,22,f,190,The gum swallowed Owen,Non-sensible,edin_semantics,sem_emo_sem_emo,0.631350088631734,2,2,2,1,603556.475619855,97,B
70,2,27/1/94,22,f,191,The internet searched Max,Non-sensible,edin_semantics,sem_emo_sem_emo,0.631450473912992,2,2,2,1,603557.851663316,85,B
70,2,27/1/94,22,f,192,Leah sucked the lolly,Sensible,edin_semantics,sem_emo_sem_emo,1.25502022460569,1,1,1,1,603559.851057798,12,B
70,2,27/1/94,22,f,193,Joe wore the jumper,Sensible,edin_semantics,sem_emo_sem_emo,0.632017826894298,2,2,2,1,603561.227130444,25,B
70,2,27/1/94,22,f,194,The nuts mixed Liam,Non-sensible,edin_semantics,sem_emo_sem_emo,0.702416750835255,1,2,2,1,603562.673726775,83,B
70,2,27/1/94,22,f,195,The car lent Fred,Non-sensible,edin_semantics,sem_emo_sem_emo,1.45506268786266,2,1,1,1,603564.873035753,94,B
70,2,27/1/94,22,f,196,Lily dented the lorry,Sensible,edin_semantics,sem_emo_sem_emo,2.52558252308518,2,2,2,1,603568.142659625,71,B
70,2,27/1/94,22,f,197,The radio fixed Luke,Non-sensible,edin_semantics,sem_emo_sem_emo,0.667332908255048,1,1,1,1,603569.554002453,112,B
70,2,27/1/94,22,f,198,Ella watched the movie,Sensible,edin_semantics,sem_emo_sem_emo,0.785097633488476,2,2,2,1,603571.082916291,33,B
70,2,27/1/94,22,f,199,Kate built the house,Sensible,edin_semantics,sem_emo_sem_emo,0.679649504716508,1,1,1,1,603572.506020549,46,B
70,2,27/1/94,22,f,200,The party cancelled Phil,Non-sensible,edin_semantics,sem_emo_sem_emo,0.667438745731488,2,1,1,1,603573.917323287,82,B
70,2,27/1/94,22,f,201,Tom knitted the scarf,Sensible,edin_semantics,sem_emo_sem_emo,0.644127879873849,2,1,1,1,603575.305194889,66,B
70,2,27/1/94,22,f,202,Jack mixed the fruits,Sensible,edin_semantics,sem_emo_sem_emo,0.572519842884503,2,1,1,1,603576.622380522,8,B
70,2,27/1/94,22,f,203,Max kissed the mirror,Sensible,edin_semantics,sem_emo_sem_emo,0.772739022737369,2,2,2,1,603578.139561153,23,B
70,2,27/1/94,22,f,204,The problem solved Phil,Non-sensible,edin_semantics,sem_emo_sem_emo,0.748901855899021,1,2,2,1,603579.633232392,109,B
70,2,27/1/94,22,f,205,The wallet carried Leo,Non-sensible,edin_semantics,sem_emo_sem_emo,0.560911395354196,1,1,1,1,603580.938720739,150,B
70,2,27/1/94,22,f,206,Sam tidied the room,Sensible,edin_semantics,sem_emo_sem_emo,0.678621277562343,2,1,1,1,603582.361806716,2,B
70,2,27/1/94,22,f,207,The cream whisked Tom,Non-sensible,edin_semantics,sem_emo_sem_emo,2.23157818429172,2,2,2,1,603585.337386802,137,B
70,2,27/1/94,22,f,208,Mike paid the bill,Sensible,edin_semantics,sem_emo_sem_emo,0.632038352894597,1,2,2,1,603586.713406209,59,B
70,2,27/1/94,22,f,209,Hugh pulled the lever,Sensible,edin_semantics,sem_emo_sem_emo,0.8085887436755,2,2,2,1,603588.265860869,45,B
70,2,27/1/94,22,f,210,Sean read the book,Sensible,edin_semantics,sem_emo_sem_emo,0.714769588550553,1,1,1,1,603589.724317092,4,B
70,2,27/1/94,22,f,211,Luke swallowed the pill,Sensible,edin_semantics,sem_emo_sem_emo,0.749635983258486,2,1,1,1,603591.217889549,22,B
70,2,27/1/94,22,f,212,The sweets offered Tom,Non-sensible,edin_semantics,sem_emo_sem_emo,0.761677723028697,1,1,1,1,603592.723381553,84,B
70,2,27/1/94,22,f,213,The socks knitted Ryan,Non-sensible,edin_semantics,sem_emo_sem_emo,0.70296806783881,1,2,2,1,603594.169939718,141,B
70,2,27/1/94,22,f,214,Phil chopped the herbs,Sensible,edin_semantics,sem_emo_sem_emo,1.11444110749289,2,2,2,1,603596.028196709,27,B
70,2,27/1/94,22,f,215,Leo stored the wine,Sensible,edin_semantics,sem_emo_sem_emo,0.855918624438345,1,1,1,1,603597.627733975,52,B
70,2,27/1/94,22,f,216,Beth wiped the table,Sensible,edin_semantics,sem_emo_sem_emo,0.655532991164364,1,1,1,1,603599.027269829,40,B
70,2,27/1/94,22,f,217,Tim ate the ham,Sensible,edin_semantics,sem_emo_sem_emo,1.18434484035242,1,2,2,1,603600.956085784,67,B
70,2,27/1/94,22,f,218,The donut iced Joe,Non-sensible,edin_semantics,sem_emo_sem_emo,0.572196236811578,1,2,2,1,603602.273324336,119,B
70,2,27/1/94,22,f,219,The invite mailed Ian,Non-sensible,edin_semantics,sem_emo_sem_emo,0.537259283941239,1,2,2,1,603603.555295595,89,B
70,2,27/1/94,22,f,220,Tim pulled the handle,Sensible,edin_semantics,sem_emo_sem_emo,0.57230047066696,1,2,2,1,603604.872543127,73,B
70,2,27/1/94,22,f,221,Jen fixed the laptop,Sensible,edin_semantics,sem_emo_sem_emo,1.13694247696549,2,2,2,1,603606.754312076,37,B
70,2,27/1/94,22,f,222,The pan washed Beth,Non-sensible,edin_semantics,sem_emo_sem_emo,0.902277045301162,2,1,1,1,603608.400874859,132,B
70,2,27/1/94,22,f,223,Luke climbed the hill,Sensible,edin_semantics,sem_emo_sem_emo,3.13740463403519,2,1,1,1,603612.282048552,68,B
70,2,27/1/94,22,f,224,Eve taught the lesson,Sensible,edin_semantics,sem_emo_sem_emo,0.796864837175235,1,2,2,1,603613.822753648,15,B
70,2,27/1/94,22,f,225,Ian cancelled the plans,Sensible,edin_semantics,sem_emo_sem_emo,0.514543352997862,1,2,2,1,603615.081171576,7,B
70,2,27/1/94,22,f,226,The bowl dented Ian,Non-sensible,edin_semantics,sem_emo_sem_emo,0.585207512020133,1,1,1,1,603616.410188878,146,B
70,2,27/1/94,22,f,227,The house dusted Alex,Non-sensible,edin_semantics,sem_emo_sem_emo,0.879277598345652,2,1,1,1,603618.033211802,122,B
70,2,27/1/94,22,f,228,Dan carried the folder,Sensible,edin_semantics,sem_emo_sem_emo,0.820528815384023,2,1,1,1,603619.597486584,30,B
70,2,27/1/94,22,f,229,Tim cleaned the floor,Sensible,edin_semantics,sem_emo_sem_emo,1.64358329796232,1,2,2,1,603621.98492746,5,B
70,2,27/1/94,22,f,230,Jeff watered the garden,Sensible,edin_semantics,sem_emo_sem_emo,0.65582901542075,1,1,1,1,603623.384543494,54,B
70,2,27/1/94,22,f,231,The trophy polished Anna,Non-sensible,edin_semantics,sem_emo_sem_emo,0.679505501640961,1,1,1,1,603624.807636206,104,B
70,2,27/1/94,22,f,232,Ryan painted the picture,Sensible,edin_semantics,sem_emo_sem_emo,1.11480255855713,1,2,2,1,603626.665892877,35,B
70,2,27/1/94,22,f,233,The shoes counted Lucy,Non-sensible,edin_semantics,sem_emo_sem_emo,0.679105564253405,1,2,2,1,603628.088951914,123,B
70,2,27/1/94,22,f,234,The turnip mashed Ella,Non-sensible,edin_semantics,sem_emo_sem_emo,2.1379687798908,2,2,2,1,603630.970435101,103,B
70,2,27/1/94,22,f,235,The gift posted Jack,Non-sensible,edin_semantics,sem_emo_sem_emo,0.701430858578533,2,2,2,1,603632.417089482,111,B
70,2,27/1/94,22,f,236,Liz labeled the jar,Sensible,edin_semantics,sem_emo_sem_emo,0.760422747000121,1,2,2,1,603633.922451594,61,B
70,2,27/1/94,22,f,237,Phil typed the letter,Sensible,edin_semantics,sem_emo_sem_emo,0.572822923073545,1,2,2,1,603635.239736971,49,B
70,2,27/1/94,22,f,238,Bill counted the sheets,Sensible,edin_semantics,sem_emo_sem_emo,0.855084753362462,2,1,1,1,603636.839254994,48,B
70,2,27/1/94,22,f,239,The ice crushed Josh,Non-sensible,edin_semantics,sem_emo_sem_emo,1.73761701455805,2,2,2,1,603639.320801106,81,B
70,2,27/1/94,22,f,240,Carl brushed the teeth,Sensible,edin_semantics,sem_emo_sem_emo,0.584868190577254,2,1,1,1,603640.649839576,72,B
70,2,27/1/94,22,f,241,The rope pulled Emma,Non-sensible,edin_semantics,sem_emo_sem_emo,0.725870016147383,1,1,1,1,603642.119943053,120,B
70,2,27/1/94,22,f,242,The carrots grated Tom,Non-sensible,edin_semantics,sem_emo_sem_emo,0.714695181697607,2,1,1,1,603643.578359185,140,B
70,2,27/1/94,22,f,243,The opera watched Adam,Non-sensible,edin_semantics,sem_emo_sem_emo,0.620324388612062,2,1,1,1,603644.942611068,108,B
70,2,27/1/94,22,f,244,The beer drank Jack,Non-sensible,edin_semantics,sem_emo_sem_emo,0.773651149356738,1,2,2,1,603646.459785605,135,B
70,2,27/1/94,22,f,245,Matt pushed the trolley,Sensible,edin_semantics,sem_emo_sem_emo,0.585063188103959,1,1,1,1,603647.788797135,26,B
70,2,27/1/94,22,f,246,Amy measured the thread,Sensible,edin_semantics,sem_emo_sem_emo,1.31436875322834,2,2,2,1,603649.847003901,51,B
70,2,27/1/94,22,f,247,The radio got Ben,Non-sensible,edin_semantics,sem_emo_sem_emo,0.538495016633533,2,1,1,1,603651.128949181,88,B
70,2,27/1/94,22,f,248,The ticket took Tim,Non-sensible,edin_semantics,sem_emo_sem_emo,0.879191645304672,1,1,1,1,603652.75198301,128,B
70,2,27/1/94,22,f,249,The rules taught Josh,Non-sensible,edin_semantics,sem_emo_sem_emo,0.679168425383978,1,1,1,1,603654.175069949,90,B
70,2,27/1/94,22,f,250,The blanket stroked Ryan,Non-sensible,edin_semantics,sem_emo_sem_emo,0.597039821790531,1,1,1,1,603655.51588813,116,B
70,2,27/1/94,22,f,251,Beth took the photo,Sensible,edin_semantics,sem_emo_sem_emo,0.855933056795038,2,2,2,1,603657.115356762,53,B
70,2,27/1/94,22,f,252,The candy sucked Sam,Non-sensible,edin_semantics,sem_emo_sem_emo,0.808499263017438,1,2,2,1,603658.667859209,87,B
70,2,27/1/94,22,f,253,Carl sold the sofa,Sensible,edin_semantics,sem_emo_sem_emo,0.678362456848845,2,1,1,1,603660.090896116,38,B
70,2,27/1/94,22,f,254,The curtains measured Rob,Non-sensible,edin_semantics,sem_emo_sem_emo,0.619258316583,1,1,1,1,603661.455183599,126,B
70,2,27/1/94,22,f,255,Jon trimmed the bushes,Sensible,edin_semantics,sem_emo_sem_emo,0.514363750000484,2,1,1,1,603662.713651881,32,B
70,2,27/1/94,22,f,256,The rose kissed Hugh,Non-sensible,edin_semantics,sem_emo_sem_emo,0.573077895096503,1,1,1,1,603664.030899734,98,B
70,2,27/1/94,22,f,257,Kate lifted the box,Sensible,edin_semantics,sem_emo_sem_emo,0.655061853933148,1,2,2,1,603665.430490432,69,B
70,2,27/1/94,22,f,258,Ewan wrote the story,Sensible,edin_semantics,sem_emo_sem_emo,0.937522530555725,2,1,1,1,603667.112309284,74,B
70,2,27/1/94,22,f,259,The monitor punched Erin,Non-sensible,edin_semantics,sem_emo_sem_emo,0.78526055905968,2,2,2,1,603668.641247497,125,B
70,2,27/1/94,22,f,260,The shed built Rose,Non-sensible,edin_semantics,sem_emo_sem_emo,0.679277790593915,2,2,2,1,603670.064314231,121,B
70,2,27/1/94,22,f,261,The pot scrubbed Josh,Non-sensible,edin_semantics,sem_emo_sem_emo,1.53763356374111,1,2,2,1,603672.345975995,131,B
70,2,27/1/94,22,f,262,The salt passed Leo,Non-sensible,edin_semantics,sem_emo_sem_emo,0.702509759459645,1,1,1,1,603673.792604397,118,B
70,2,27/1/94,22,f,263,Jake dusted the shelf,Sensible,edin_semantics,sem_emo_sem_emo,0.526572905364446,1,2,2,1,603675.062777022,47,B
70,2,27/1/94,22,f,264,Kate served the dish,Sensible,edin_semantics,sem_emo_sem_emo,0.89124557247851,2,1,1,1,603676.69761205,70,B
70,2,27/1/94,22,f,265,The report filed Ian,Non-sensible,edin_semantics,sem_emo_sem_emo,0.773547236225568,2,2,2,1,603678.21477921,99,B
70,2,27/1/94,22,f,266,Will licked the spoon,Sensible,edin_semantics,sem_emo_sem_emo,1.24366706993897,1,2,2,1,603680.202432787,21,B
70,2,27/1/94,22,f,267,Lily got the kettle,Sensible,edin_semantics,sem_emo_sem_emo,0.723955640569329,2,2,2,1,603681.672546847,13,B
70,2,27/1/94,22,f,268,John described the pen,Sensible,edin_semantics,sem_emo_sem_emo,0.709971943404526,1,1,1,1,603683.119298086,42,B
70,2,27/1/94,22,f,269,Ben chewed the toffee,Sensible,edin_semantics,sem_emo_sem_emo,0.653289236477576,2,2,2,1,603684.518832016,31,B
70,2,27/1/94,22,f,270,Liz sliced the tomato,Sensible,edin_semantics,sem_emo_sem_emo,0.686591802164912,1,2,2,1,603685.942078674,3,B
70,2,27/1/94,22,f,271,The button pushed Ian,Non-sensible,edin_semantics,sem_emo_sem_emo,0.768915082444437,2,2,2,1,603687.447341362,101,B
70,2,27/1/94,22,f,272,Jane punched the wall,Sensible,edin_semantics,sem_emo_sem_emo,0.676542052184232,1,1,1,1,603688.870340104,50,B
70,2,27/1/94,22,f,273,Rob stroked the fur,Sensible,edin_semantics,sem_emo_sem_emo,0.913103578262962,2,2,2,1,603690.528662394,41,B
70,2,27/1/94,22,f,274,The plate licked Jane,Non-sensible,edin_semantics,sem_emo_sem_emo,0.72500856325496,1,1,1,1,603691.998766512,96,B
70,2,27/1/94,22,f,275,Dan whisked the eggs,Sensible,edin_semantics,sem_emo_sem_emo,0.8199088643305,1,1,1,1,603693.563028145,62,B
70,2,27/1/94,22,f,276,The stairs climbed Ben,Non-sensible,edin_semantics,sem_emo_sem_emo,1.34906676993705,1,2,2,1,603695.65647719,143,B
70,2,27/1/94,22,f,277,The portrait painted Jay,Non-sensible,edin_semantics,sem_emo_sem_emo,0.855858008493669,1,1,1,1,603697.255993288,110,B
70,2,27/1/94,22,f,278,The hospital visited Tom,Non-sensible,edin_semantics,sem_emo_sem_emo,1.33773831068538,2,2,2,1,603699.337705597,91,B
70,2,27/1/94,22,f,279,Jen searched the room,Sensible,edin_semantics,sem_emo_sem_emo,0.820692703127861,1,1,1,1,603700.901944138,10,B
70,2,27/1/94,22,f,280,Matt kicked the bike,Sensible,edin_semantics,sem_emo_sem_emo,1.40856379177421,1,2,2,1,603703.054191677,39,B
70,2,27/1/94,22,f,281,The carrots chopped Fred,Non-sensible,edin_semantics,sem_emo_sem_emo,0.503091095946729,1,1,1,1,603704.300877681,102,B
70,2,27/1/94,22,f,282,The ribbon cut Lucy,Non-sensible,edin_semantics,sem_emo_sem_emo,0.831780622596852,1,2,2,1,603705.876883105,95,B
70,2,27/1/94,22,f,283,The garage tidied Erin,Non-sensible,edin_semantics,sem_emo_sem_emo,0.749619947280735,1,2,2,1,603707.370517462,77,B
70,2,27/1/94,22,f,284,Jon jumped the fence,Sensible,edin_semantics,sem_emo_sem_emo,2.6198423471069,2,2,2,1,603710.73423695,17,B
70,2,27/1/94,22,f,285,Will mashed the potatoes,Sensible,edin_semantics,sem_emo_sem_emo,0.702825668267906,1,1,1,1,603712.180858297,28,B
70,2,27/1/94,22,f,286,Lara filed the papers,Sensible,edin_semantics,sem_emo_sem_emo,1.06761636026204,2,1,1,1,603713.992036531,24,B
70,2,27/1/94,22,f,287,The poster read Luke,Non-sensible,edin_semantics,sem_emo_sem_emo,1.34961327619385,1,2,2,1,603716.085531118,79,B
70,2,27/1/94,22,f,288,The lemon squeezed Jay,Non-sensible,edin_semantics,sem_emo_sem_emo,0.749851827626117,2,1,1,1,603717.57916323,76,B
70,2,27/1/94,22,f,289,Jon cut the paper,Sensible,edin_semantics,sem_emo_sem_emo,0.949610133189708,1,1,1,1,603719.272771415,20,B
70,2,27/1/94,22,f,290,Ryan carried the gun,Sensible,edin_semantics,sem_emo_sem_emo,1.2789382126648,2,2,2,1,603721.295677854,75,B
70,2,27/1/94,22,f,291,The office entered Joe,Non-sensible,edin_semantics,sem_emo_sem_emo,0.92592338391114,1,2,2,1,603722.96577729,133,B
70,2,27/1/94,22,f,292,Rob mailed the parcel,Sensible,edin_semantics,sem_emo_sem_emo,0.749898011097685,2,1,1,1,603724.459433134,14,B
70,2,27/1/94,22,f,293,Joe solved the puzzle,Sensible,edin_semantics,sem_emo_sem_emo,0.678935582865961,2,1,1,1,603725.882507566,34,B
70,2,27/1/94,22,f,294,The kettle carried John,Non-sensible,edin_semantics,sem_emo_sem_emo,1.24376039940398,2,2,2,1,603727.870134523,105,B
70,2,27/1/94,22,f,295,Erin posted the card,Sensible,edin_semantics,sem_emo_sem_emo,0.702729773125611,1,1,1,1,603729.316740154,36,B
70,2,27/1/94,22,f,296,Erin crushed the garlic,Sensible,edin_semantics,sem_emo_sem_emo,0.631988320616074,1,1,1,1,603730.692793558,6,B
70,2,27/1/94,22,f,297,The message typed Eve,Non-sensible,edin_semantics,sem_emo_sem_emo,0.667419502628036,2,1,1,1,603732.104131575,124,B
70,2,27/1/94,22,f,298,The plants watered Luke,Non-sensible,edin_semantics,sem_emo_sem_emo,0.820638180826791,1,2,2,1,603733.66838968,129,B
70,2,27/1/94,22,f,299,Ryan entered the room,Sensible,edin_semantics,sem_emo_sem_emo,1.0305921639083,2,1,1,1,603735.444317618,58,B
70,2,27/1/94,22,f,300,The dessert served Fred,Non-sensible,edin_semantics,sem_emo_sem_emo,0.701398466015235,2,2,2,1,603736.890895988,145,B
