subject_column,AssignedList_column,subject_dob_column,subject_age_column,subject_gender_column,trialnum_column,Stim_column,Type_column,Experiment_column,OrderGroup_column,ReactionTime_column,StimSide_column,StimPosition_column,Response_column,Valid_column,TrialEndSecs_column,PairID_column,List_column
71,3,8/11/91,24,f,1,The report wrote Alex,Non-sensible,edin_semantics,emo_sem_emo_sem,1.54341196955647,2,1,1,1,767393.865746757,149,B
71,3,8/11/91,24,f,2,The trophy polished Anna,Non-sensible,edin_semantics,emo_sem_emo_sem,3.19599113275763,2,2,2,1,767397.805722152,104,B
71,3,8/11/91,24,f,3,Dan whisked the eggs,Sensible,edin_semantics,emo_sem_emo_sem,2.27936316630803,2,2,2,1,767400.828328396,62,B
71,3,8/11/91,24,f,4,Josh ironed the shirt,Sensible,edin_semantics,emo_sem_emo_sem,1.59704559482634,1,1,1,1,767403.168796352,55,B
71,3,8/11/91,24,f,5,Tim pulled the handle,Sensible,edin_semantics,emo_sem_emo_sem,2.32686944270972,2,1,1,1,767406.23847494,73,B
71,3,8/11/91,24,f,6,Jon polished the coins,Sensible,edin_semantics,emo_sem_emo_sem,1.31531904556323,1,1,1,1,767408.296672726,29,B
71,3,8/11/91,24,f,7,Mary iced the cake,Sensible,edin_semantics,emo_sem_emo_sem,3.51462160854135,2,2,2,1,767412.554110856,44,B
71,3,8/11/91,24,f,8,Phil chopped the herbs,Sensible,edin_semantics,emo_sem_emo_sem,0.89124044100754,2,1,1,1,767414.188915737,27,B
71,3,8/11/91,24,f,9,The sweets offered Tom,Non-sensible,edin_semantics,emo_sem_emo_sem,1.54983021097723,2,2,2,1,767416.482329631,84,B
71,3,8/11/91,24,f,10,The curtains measured Rob,Non-sensible,edin_semantics,emo_sem_emo_sem,2.18498531752266,2,2,2,1,767419.410896386,126,B
71,3,8/11/91,24,f,11,The party cancelled Phil,Non-sensible,edin_semantics,emo_sem_emo_sem,1.47947362205014,1,2,2,1,767421.633692625,82,B
71,3,8/11/91,24,f,12,The shoes counted Lucy,Non-sensible,edin_semantics,emo_sem_emo_sem,1.62063260027207,2,1,1,1,767423.997782865,123,B
71,3,8/11/91,24,f,13,Max kissed the mirror,Sensible,edin_semantics,emo_sem_emo_sem,1.42110264697112,2,1,1,1,767426.161713579,23,B
71,3,8/11/91,24,f,14,The ticket took Tim,Non-sensible,edin_semantics,emo_sem_emo_sem,1.44446514872834,2,2,2,1,767428.349261447,128,B
71,3,8/11/91,24,f,15,The plants watered Luke,Non-sensible,edin_semantics,emo_sem_emo_sem,1.06802046706434,2,1,1,1,767430.160512484,129,B
71,3,8/11/91,24,f,16,The opera watched Adam,Non-sensible,edin_semantics,emo_sem_emo_sem,2.83242206193972,1,2,2,1,767433.735844397,108,B
71,3,8/11/91,24,f,17,Lily dented the lorry,Sensible,edin_semantics,emo_sem_emo_sem,1.29147610568907,1,1,1,1,767435.770552998,71,B
71,3,8/11/91,24,f,18,The hair brushed Dan,Non-sensible,edin_semantics,emo_sem_emo_sem,1.27999402175192,1,1,1,1,767437.793454304,147,B
71,3,8/11/91,24,f,19,The turnip mashed Ella,Non-sensible,edin_semantics,emo_sem_emo_sem,1.15061764186248,1,1,1,1,767439.686981797,103,B
71,3,8/11/91,24,f,20,The blanket stroked Ryan,Non-sensible,edin_semantics,emo_sem_emo_sem,2.07972545118537,1,2,2,1,767442.509643078,116,B
71,3,8/11/91,24,f,21,The ribbon cut Lucy,Non-sensible,edin_semantics,emo_sem_emo_sem,1.60892921965569,1,1,1,1,767444.861892028,95,B
71,3,8/11/91,24,f,22,Amy measured the thread,Sensible,edin_semantics,emo_sem_emo_sem,1.82042971299961,2,1,1,1,767447.425762383,51,B
71,3,8/11/91,24,f,23,The door kicked Max,Non-sensible,edin_semantics,emo_sem_emo_sem,1.55031866708305,1,2,2,1,767449.719210914,114,B
71,3,8/11/91,24,f,24,Bill counted the sheets,Sensible,edin_semantics,emo_sem_emo_sem,1.53822272573598,1,2,2,1,767452.000845738,48,B
71,3,8/11/91,24,f,25,The rope pulled Andy,Non-sensible,edin_semantics,emo_sem_emo_sem,1.98515228403267,1,2,2,1,767454.729424231,148,B
71,3,8/11/91,24,f,26,The carrots grated Tom,Non-sensible,edin_semantics,emo_sem_emo_sem,2.65541592845693,1,2,2,1,767458.128368037,140,B
71,3,8/11/91,24,f,27,Lily got the kettle,Sensible,edin_semantics,emo_sem_emo_sem,2.14965452079196,1,1,1,1,767461.021598864,13,B
71,3,8/11/91,24,f,28,The office entered Joe,Non-sensible,edin_semantics,emo_sem_emo_sem,1.2207247109618,1,1,1,1,767462.985696225,133,B
71,3,8/11/91,24,f,29,The lemon squeezed Jay,Non-sensible,edin_semantics,emo_sem_emo_sem,1.5499075044645,2,2,2,1,767465.279130003,76,B
71,3,8/11/91,24,f,30,Tim cleaned the floor,Sensible,edin_semantics,emo_sem_emo_sem,1.13865608209744,2,1,1,1,767467.16088933,5,B
71,3,8/11/91,24,f,31,Ryan painted the picture,Sensible,edin_semantics,emo_sem_emo_sem,1.1855536326766,2,1,1,1,767469.08974345,35,B
71,3,8/11/91,24,f,32,Ben chewed the toffee,Sensible,edin_semantics,emo_sem_emo_sem,1.39680300245527,1,1,1,1,767471.230236614,31,B
71,3,8/11/91,24,f,33,The perfume sniffed Tim,Non-sensible,edin_semantics,emo_sem_emo_sem,1.5386685259873,1,1,1,1,767473.511904472,93,B
71,3,8/11/91,24,f,34,The nuts mixed Liam,Non-sensible,edin_semantics,emo_sem_emo_sem,1.30341970536392,1,1,1,1,767475.558336979,83,B
71,3,8/11/91,24,f,35,Eve taught the lesson,Sensible,edin_semantics,emo_sem_emo_sem,1.49177482409868,2,1,1,1,767477.792946605,15,B
71,3,8/11/91,24,f,36,Luke climbed the hill,Sensible,edin_semantics,emo_sem_emo_sem,1.52686636382714,2,2,2,1,767480.062800755,68,B
71,3,8/11/91,24,f,37,The shed built Rose,Non-sensible,edin_semantics,emo_sem_emo_sem,2.00926302466542,2,1,1,1,767482.81490211,121,B
71,3,8/11/91,24,f,38,The crate lifted Amy,Non-sensible,edin_semantics,emo_sem_emo_sem,2.40871773718391,2,2,2,1,767485.966890508,144,B
71,3,8/11/91,24,f,39,Phil typed the letter,Sensible,edin_semantics,emo_sem_emo_sem,1.16189382388256,1,1,1,1,767487.872171734,49,B
71,3,8/11/91,24,f,40,The portrait painted Jay,Non-sensible,edin_semantics,emo_sem_emo_sem,1.43256933637895,1,2,2,1,767490.048008523,110,B
71,3,8/11/91,24,f,41,The sugar weighed Liz,Non-sensible,edin_semantics,emo_sem_emo_sem,1.0561608960852,1,1,1,1,767491.84745804,139,B
71,3,8/11/91,24,f,42,Matt kicked the bike,Sensible,edin_semantics,emo_sem_emo_sem,1.99723796243779,2,1,1,1,767494.587772628,39,B
71,3,8/11/91,24,f,43,Liz labeled the jar,Sensible,edin_semantics,emo_sem_emo_sem,1.52688464487437,1,1,1,1,767496.857703429,61,B
71,3,8/11/91,24,f,44,The donut iced Joe,Non-sensible,edin_semantics,emo_sem_emo_sem,1.38543862255756,1,1,1,1,767498.986364284,119,B
71,3,8/11/91,24,f,45,Sean read the book,Sensible,edin_semantics,emo_sem_emo_sem,1.16202179098036,1,2,2,1,767500.89171222,4,B
71,3,8/11/91,24,f,46,Jon jumped the fence,Sensible,edin_semantics,emo_sem_emo_sem,1.60902351129334,1,1,1,1,767503.243956038,17,B
71,3,8/11/91,24,f,47,The onion sliced Liam,Non-sensible,edin_semantics,emo_sem_emo_sem,1.60911940643564,1,2,2,1,767505.596157522,78,B
71,3,8/11/91,24,f,48,Jen searched the room,Sensible,edin_semantics,emo_sem_emo_sem,1.29148187860847,2,2,2,1,767507.630812242,10,B
71,3,8/11/91,24,f,49,Beth wiped the table,Sensible,edin_semantics,emo_sem_emo_sem,1.33875499200076,2,2,2,1,767509.712553737,40,B
71,3,8/11/91,24,f,50,The fat chewed Adam,Non-sensible,edin_semantics,emo_sem_emo_sem,1.39754963782616,1,2,2,1,767511.853043373,106,B
71,3,8/11/91,24,f,51,The dress wore Kate,Non-sensible,edin_semantics,emo_sem_emo_sem,1.09178450983018,1,2,2,1,767513.687762108,100,B
71,3,8/11/91,24,f,52,Tom dialed the number,Sensible,edin_semantics,emo_sem_emo_sem,0.973963017226197,1,1,1,1,767515.404895401,63,B
71,3,8/11/91,24,f,53,Will mashed the potatoes,Sensible,edin_semantics,emo_sem_emo_sem,1.30331450921949,1,2,2,1,767517.451316362,28,B
71,3,8/11/91,24,f,54,Jane punched the wall,Sensible,edin_semantics,emo_sem_emo_sem,1.86644592601806,2,2,2,1,767520.062259059,50,B
71,3,8/11/91,24,f,55,Max lent the bucket,Sensible,edin_semantics,emo_sem_emo_sem,1.3374098938657,1,1,1,1,767522.143993498,19,B
71,3,8/11/91,24,f,56,The salt passed Leo,Non-sensible,edin_semantics,emo_sem_emo_sem,1.44343724229839,2,2,2,1,767524.331580814,118,B
71,3,8/11/91,24,f,57,The debt paid Zoe,Non-sensible,edin_semantics,emo_sem_emo_sem,1.22091650124639,1,2,2,1,767526.295674326,134,B
71,3,8/11/91,24,f,58,Ryan carried the gun,Sensible,edin_semantics,emo_sem_emo_sem,1.46814804931637,2,1,1,1,767528.506752752,75,B
71,3,8/11/91,24,f,59,The wallet carried Leo,Non-sensible,edin_semantics,emo_sem_emo_sem,1.69133684923872,2,2,2,1,767530.941307664,150,B
71,3,8/11/91,24,f,60,The hedge jumped Sara,Non-sensible,edin_semantics,emo_sem_emo_sem,1.73849738994613,1,2,2,1,767533.422917279,92,B
71,3,8/11/91,24,f,61,The radio got Ben,Non-sensible,edin_semantics,emo_sem_emo_sem,1.17399361380376,2,2,2,1,767535.339954483,88,B
71,3,8/11/91,24,f,62,Jen weighed the flour,Sensible,edin_semantics,emo_sem_emo_sem,1.46796299412381,1,2,2,1,767537.551049908,64,B
71,3,8/11/91,24,f,63,Jake dusted the shelf,Sensible,edin_semantics,emo_sem_emo_sem,1.44439330755267,1,1,1,1,767539.738624716,47,B
71,3,8/11/91,24,f,64,The carrots chopped Fred,Non-sensible,edin_semantics,emo_sem_emo_sem,1.2916512186639,1,2,2,1,767541.773292264,102,B
71,3,8/11/91,24,f,65,Liz sliced the tomato,Sensible,edin_semantics,emo_sem_emo_sem,1.5268509691814,1,1,1,1,767544.043192597,3,B
71,3,8/11/91,24,f,66,Jon trimmed the bushes,Sensible,edin_semantics,emo_sem_emo_sem,1.42094260791782,1,2,2,1,767546.207198681,32,B
71,3,8/11/91,24,f,67,The box labeled Ian,Non-sensible,edin_semantics,emo_sem_emo_sem,1.47966765752062,1,2,2,1,767548.430047518,136,B
71,3,8/11/91,24,f,68,Will licked the spoon,Sensible,edin_semantics,emo_sem_emo_sem,1.10340738960076,1,1,1,1,767550.276577716,21,B
71,3,8/11/91,24,f,69,Liz scrubbed the bowl,Sensible,edin_semantics,emo_sem_emo_sem,1.50299648370128,1,2,2,1,767552.52292055,56,B
71,3,8/11/91,24,f,70,Matt pushed the trolley,Sensible,edin_semantics,emo_sem_emo_sem,1.69136314827483,1,2,2,1,767554.957470972,26,B
71,3,8/11/91,24,f,71,Andy grated the cheese,Sensible,edin_semantics,emo_sem_emo_sem,1.26838910218794,1,1,1,1,767556.9686163,65,B
71,3,8/11/91,24,f,72,Mike paid the bill,Sensible,edin_semantics,emo_sem_emo_sem,0.985594235709868,1,1,1,1,767558.697457784,59,B
71,3,8/11/91,24,f,73,The rice stored Fred,Non-sensible,edin_semantics,emo_sem_emo_sem,1.38590110035148,2,1,1,1,767560.826257189,127,B
71,3,8/11/91,24,f,74,Beth took the photo,Sensible,edin_semantics,emo_sem_emo_sem,1.16217349132057,1,1,1,1,767562.731526549,53,B
71,3,8/11/91,24,f,75,The hair trimmed Bill,Non-sensible,edin_semantics,emo_sem_emo_sem,1.04462717624847,1,1,1,1,767564.519239651,107,B
71,3,8/11/91,24,f,76,Ella watched the movie,Sensible,edin_semantics,emo_sem_emo_sem,1.3270692510996,2,1,1,1,767566.589232864,33,B
71,3,8/11/91,24,f,77,Carl sold the sofa,Sensible,edin_semantics,emo_sem_emo_sem,3.36125155061018,2,2,2,1,767570.693790355,38,B
71,3,8/11/91,24,f,78,Erin crushed the garlic,Sensible,edin_semantics,emo_sem_emo_sem,1.92653627914842,2,2,2,1,767573.363612368,6,B
71,3,8/11/91,24,f,79,The church described Erin,Non-sensible,edin_semantics,emo_sem_emo_sem,1.11549146438483,1,1,1,1,767575.221826062,117,B
71,3,8/11/91,24,f,80,The rose kissed Hugh,Non-sensible,edin_semantics,emo_sem_emo_sem,1.72647008264903,1,2,2,1,767577.691685472,98,B
71,3,8/11/91,24,f,81,The internet searched Max,Non-sensible,edin_semantics,emo_sem_emo_sem,2.20880612754263,1,1,1,1,767580.643681759,85,B
71,3,8/11/91,24,f,82,The plate licked Jane,Non-sensible,edin_semantics,emo_sem_emo_sem,1.05608007474802,2,2,2,1,767582.443133521,96,B
71,3,8/11/91,24,f,83,Dan carried the folder,Sensible,edin_semantics,emo_sem_emo_sem,2.18497377156746,2,2,2,1,767585.371676543,30,B
71,3,8/11/91,24,f,84,The gum swallowed Owen,Non-sensible,edin_semantics,emo_sem_emo_sem,1.57377930893563,1,1,1,1,767587.688581867,97,B
71,3,8/11/91,24,f,85,The hotline dialed Hugh,Non-sensible,edin_semantics,emo_sem_emo_sem,1.20912748866249,1,2,2,1,767589.640943775,138,B
71,3,8/11/91,24,f,86,Hugh pulled the lever,Sensible,edin_semantics,emo_sem_emo_sem,1.62066595512442,1,1,1,1,767592.004921443,45,B
71,3,8/11/91,24,f,87,The steak ate Mike,Non-sensible,edin_semantics,emo_sem_emo_sem,1.33857442694716,2,2,2,1,767594.086609057,142,B
71,3,8/11/91,24,f,88,Kate served the dish,Sensible,edin_semantics,emo_sem_emo_sem,1.51496125059202,1,2,2,1,767596.344742186,70,B
71,3,8/11/91,24,f,89,The garage tidied Erin,Non-sensible,edin_semantics,emo_sem_emo_sem,1.37428303121123,2,1,1,1,767598.461742316,77,B
71,3,8/11/91,24,f,90,The dessert served Fred,Non-sensible,edin_semantics,emo_sem_emo_sem,0.868211487657391,1,1,1,1,767600.073010544,145,B
71,3,8/11/91,24,f,91,The car lent Fred,Non-sensible,edin_semantics,emo_sem_emo_sem,1.49152081401553,1,2,2,1,767602.307613115,94,B
71,3,8/11/91,24,f,92,Jack mixed the fruits,Sensible,edin_semantics,emo_sem_emo_sem,1.83234573062509,1,2,2,1,767604.883335343,8,B
71,3,8/11/91,24,f,93,Matt offered the money,Sensible,edin_semantics,emo_sem_emo_sem,2.27392985473853,2,1,1,1,767607.894135577,9,B
71,3,8/11/91,24,f,94,Tom knitted the scarf,Sensible,edin_semantics,emo_sem_emo_sem,3.69041349738836,2,2,2,1,767612.328086894,66,B
71,3,8/11/91,24,f,95,The problem solved Phil,Non-sensible,edin_semantics,emo_sem_emo_sem,1.34974284702912,1,1,1,1,767614.421550692,109,B
71,3,8/11/91,24,f,96,The bed sold Jay,Non-sensible,edin_semantics,emo_sem_emo_sem,2.4433012570953,2,1,1,1,767617.60880895,113,B
71,3,8/11/91,24,f,97,Kate built the house,Sensible,edin_semantics,emo_sem_emo_sem,5.28995012165979,1,2,2,1,767623.642264499,46,B
71,3,8/11/91,24,f,98,Erin posted the card,Sensible,edin_semantics,emo_sem_emo_sem,2.666802437976,2,2,2,1,767627.052956265,36,B
71,3,8/11/91,24,f,99,The trousers ironed Eve,Non-sensible,edin_semantics,emo_sem_emo_sem,2.33779507805593,2,2,2,1,767630.134392756,130,B
71,3,8/11/91,24,f,100,The desk wiped Lucy,Non-sensible,edin_semantics,emo_sem_emo_sem,1.99675463791937,2,1,1,1,767632.874744226,115,B
71,3,8/11/91,24,f,101,The report filed Ian,Non-sensible,edin_semantics,emo_sem_emo_sem,3.76109529612586,1,1,1,1,767637.379222114,99,B
71,3,8/11/91,24,f,102,Mark washed the dishes,Sensible,edin_semantics,emo_sem_emo_sem,1.82083766837604,1,1,1,1,767639.943133841,57,B
71,3,8/11/91,24,f,103,Ryan entered the room,Sensible,edin_semantics,emo_sem_emo_sem,1.60877014289144,1,2,2,1,767642.29533276,58,B
71,3,8/11/91,24,f,104,Mary visited the museum,Sensible,edin_semantics,emo_sem_emo_sem,5.29010406706948,1,2,2,1,767648.328824229,16,B
71,3,8/11/91,24,f,105,The rope pulled Emma,Non-sensible,edin_semantics,emo_sem_emo_sem,2.91386785323266,2,2,2,1,767651.986466914,120,B
71,3,8/11/91,24,f,106,Kate lifted the box,Sensible,edin_semantics,emo_sem_emo_sem,3.54911628912669,1,1,1,1,767656.279308644,69,B
71,3,8/11/91,24,f,107,The message typed Eve,Non-sensible,edin_semantics,emo_sem_emo_sem,1.81949417374562,1,2,2,1,767658.843255009,124,B
71,3,8/11/91,24,f,108,The bowl dented Ian,Non-sensible,edin_semantics,emo_sem_emo_sem,6.33548429305665,2,2,2,1,767665.923341912,146,B
71,3,8/11/91,24,f,109,The rules taught Josh,Non-sensible,edin_semantics,emo_sem_emo_sem,3.43110909976531,1,2,2,1,767670.098568051,90,B
71,3,8/11/91,24,f,110,The candy sucked Sam,Non-sensible,edin_semantics,emo_sem_emo_sem,2.32582485885359,1,1,1,1,767673.168241186,87,B
71,3,8/11/91,24,f,111,The house dusted Alex,Non-sensible,edin_semantics,emo_sem_emo_sem,1.53738789248746,1,2,2,1,767675.449851635,122,B
71,3,8/11/91,24,f,112,Phil sniffed the milk,Sensible,edin_semantics,emo_sem_emo_sem,1.39629883109592,1,2,2,1,767677.590403491,18,B
71,3,8/11/91,24,f,113,Jeff watered the garden,Sensible,edin_semantics,emo_sem_emo_sem,1.64348483702634,2,2,2,1,767679.977920377,54,B
71,3,8/11/91,24,f,114,The hospital visited Tom,Non-sensible,edin_semantics,emo_sem_emo_sem,1.32584089483134,1,1,1,1,767682.047835335,91,B
71,3,8/11/91,24,f,115,The ice crushed Josh,Non-sensible,edin_semantics,emo_sem_emo_sem,1.4670415665023,1,1,1,1,767684.258925628,81,B
71,3,8/11/91,24,f,116,Matt drank the juice,Sensible,edin_semantics,emo_sem_emo_sem,2.18483361706603,2,2,2,1,767687.187453255,60,B
71,3,8/11/91,24,f,117,The pot scrubbed Josh,Non-sensible,edin_semantics,emo_sem_emo_sem,3.60709406202659,2,1,1,1,767691.539039919,131,B
71,3,8/11/91,24,f,118,Amy hugged the tree,Sensible,edin_semantics,emo_sem_emo_sem,1.99598074145615,2,1,1,1,767694.279376316,11,B
71,3,8/11/91,24,f,119,The pan washed Beth,Non-sensible,edin_semantics,emo_sem_emo_sem,1.60775731015019,2,2,2,1,767696.631615003,132,B
71,3,8/11/91,24,f,120,Ewan wrote the story,Sensible,edin_semantics,emo_sem_emo_sem,1.47858041781001,1,2,2,1,767698.854446521,74,B
71,3,8/11/91,24,f,121,The pillow hugged Kate,Non-sensible,edin_semantics,emo_sem_emo_sem,1.43151769670658,2,2,2,1,767701.030266954,86,B
71,3,8/11/91,24,f,122,The gift posted Jack,Non-sensible,edin_semantics,emo_sem_emo_sem,1.43175759492442,2,1,1,1,767703.206050184,111,B
71,3,8/11/91,24,f,123,Joe wore the jumper,Sensible,edin_semantics,emo_sem_emo_sem,1.97245467267931,2,1,1,1,767705.922857946,25,B
71,3,8/11/91,24,f,124,Phil passed the towels,Sensible,edin_semantics,emo_sem_emo_sem,2.74891179823317,1,1,1,1,767709.415945475,43,B
71,3,8/11/91,24,f,125,Jen fixed the laptop,Sensible,edin_semantics,emo_sem_emo_sem,3.28984235983808,1,1,1,1,767713.449963246,37,B
71,3,8/11/91,24,f,126,Sam tidied the room,Sensible,edin_semantics,emo_sem_emo_sem,2.11283654719591,2,2,1,0,767716.307912346,2,B
71,3,8/11/91,24,f,127,Lara filed the papers,Sensible,edin_semantics,emo_sem_emo_sem,2.24273858650122,2,2,2,1,767719.295285293,24,B
71,3,8/11/91,24,f,128,John described the pen,Sensible,edin_semantics,emo_sem_emo_sem,1.8662727373885,1,2,2,1,767721.906195598,42,B
71,3,8/11/91,24,f,129,The cream whisked Tom,Non-sensible,edin_semantics,emo_sem_emo_sem,1.85434036306106,2,1,1,1,767724.505376544,137,B
71,3,8/11/91,24,f,130,The kettle carried John,Non-sensible,edin_semantics,emo_sem_emo_sem,1.63081576966215,1,1,1,1,767726.881131358,105,B
71,3,8/11/91,24,f,131,Joe solved the puzzle,Sensible,edin_semantics,emo_sem_emo_sem,1.51367708924226,2,2,2,1,767729.139226001,34,B
71,3,8/11/91,24,f,132,The button pushed Ian,Non-sensible,edin_semantics,emo_sem_emo_sem,1.19603763706982,1,1,1,1,767731.079884528,101,B
71,3,8/11/91,24,f,133,Leo stored the wine,Sensible,edin_semantics,emo_sem_emo_sem,5.52445391064975,2,2,2,1,767737.348500058,52,B
71,3,8/11/91,24,f,134,The invite mailed Ian,Non-sensible,edin_semantics,emo_sem_emo_sem,1.13760925317183,1,1,1,1,767739.23029274,89,B
71,3,8/11/91,24,f,135,Ian cancelled the plans,Sensible,edin_semantics,emo_sem_emo_sem,2.13748449319974,2,1,1,1,767742.11175027,7,B
71,3,8/11/91,24,f,136,Rob mailed the parcel,Sensible,edin_semantics,emo_sem_emo_sem,1.94945041486062,2,2,2,1,767744.805026511,14,B
71,3,8/11/91,24,f,137,The socks knitted Ryan,Non-sensible,edin_semantics,emo_sem_emo_sem,1.17286019062158,2,1,1,1,767746.722103805,141,B
71,3,8/11/91,24,f,138,Josh squeezed the ball,Sensible,edin_semantics,emo_sem_emo_sem,1.17290444998071,2,1,1,1,767748.639155763,1,B
71,3,8/11/91,24,f,139,The stairs climbed Ben,Non-sensible,edin_semantics,emo_sem_emo_sem,1.98444766306784,1,1,1,1,767751.367757669,143,B
71,3,8/11/91,24,f,140,Carl brushed the teeth,Sensible,edin_semantics,emo_sem_emo_sem,2.54917337722145,2,2,2,1,767754.660886764,72,B
71,3,8/11/91,24,f,141,Luke swallowed the pill,Sensible,edin_semantics,emo_sem_emo_sem,3.71271409641486,2,2,2,1,767759.118296158,22,B
71,3,8/11/91,24,f,142,The poster read Luke,Non-sensible,edin_semantics,emo_sem_emo_sem,1.72530202160124,1,1,1,1,767761.588154605,79,B
71,3,8/11/91,24,f,143,Tim ate the ham,Sensible,edin_semantics,emo_sem_emo_sem,3.31336682499386,1,1,1,1,767765.645679842,67,B
71,3,8/11/91,24,f,144,The bath cleaned Jack,Non-sensible,edin_semantics,emo_sem_emo_sem,1.81983541953377,1,2,2,1,767768.209621718,80,B
71,3,8/11/91,24,f,145,Rob stroked the fur,Sensible,edin_semantics,emo_sem_emo_sem,2.71360665920656,2,1,1,1,767771.667381978,41,B
71,3,8/11/91,24,f,146,The beer drank Jack,Non-sensible,edin_semantics,emo_sem_emo_sem,1.86675894842483,2,1,1,1,767774.278355786,135,B
71,3,8/11/91,24,f,147,Leah sucked the lolly,Sensible,edin_semantics,emo_sem_emo_sem,2.65516576718073,2,2,2,1,767777.677320759,12,B
71,3,8/11/91,24,f,148,The radio fixed Luke,Non-sensible,edin_semantics,emo_sem_emo_sem,1.98429820768069,2,2,2,1,767780.405916251,112,B
71,3,8/11/91,24,f,149,The monitor punched Erin,Non-sensible,edin_semantics,emo_sem_emo_sem,1.12607360910624,2,1,1,1,767782.275913185,125,B
71,3,8/11/91,24,f,150,Jon cut the paper,Sensible,edin_semantics,emo_sem_emo_sem,2.73717570432927,2,2,2,1,767785.75720625,20,B
71,3,8/11/91,24,f,24,The teeth brushed Carl,Non-sensible,edin_semantics,emo_sem_emo_sem,2.64849608147051,2,2,2,1,767819.80553421,72,A
71,3,8/11/91,24,f,25,Ella mashed the turnip,Sensible,edin_semantics,emo_sem_emo_sem,1.10298051184509,1,1,1,1,767821.652037468,103,A
71,3,8/11/91,24,f,26,Lucy counted the shoes,Sensible,edin_semantics,emo_sem_emo_sem,0.855854480410926,1,1,1,1,767823.251549076,123,A
71,3,8/11/91,24,f,27,The ball squeezed Josh,Non-sensible,edin_semantics,emo_sem_emo_sem,2.19687824335415,2,1,1,1,767826.191823381,1,A
71,3,8/11/91,24,f,28,Fred served the dessert,Sensible,edin_semantics,emo_sem_emo_sem,0.973894703900442,1,1,1,1,767827.908942241,145,A
71,3,8/11/91,24,f,29,Liam sliced the onion,Sensible,edin_semantics,emo_sem_emo_sem,1.36166527902242,1,2,2,1,767830.01419441,78,A
71,3,8/11/91,24,f,30,The coins polished Jon,Non-sensible,edin_semantics,emo_sem_emo_sem,1.20875962311402,2,1,1,1,767831.96653515,29,A
71,3,8/11/91,24,f,31,Tom grated the carrots,Sensible,edin_semantics,emo_sem_emo_sem,1.01994972396642,1,2,2,1,767833.730683697,140,A
71,3,8/11/91,24,f,32,Ian filed the report,Sensible,edin_semantics,emo_sem_emo_sem,0.938272373052314,1,1,1,1,767835.412562524,99,A
71,3,8/11/91,24,f,33,The pill swallowed Luke,Non-sensible,edin_semantics,emo_sem_emo_sem,0.879214737215079,1,2,2,1,767837.035595711,22,A
71,3,8/11/91,24,f,34,Jack posted the gift,Sensible,edin_semantics,emo_sem_emo_sem,1.10318192373961,1,1,1,1,767838.882039636,111,A
71,3,8/11/91,24,f,35,The hill climbed Luke,Non-sensible,edin_semantics,emo_sem_emo_sem,0.89125936338678,1,2,2,1,767840.516854138,68,A
71,3,8/11/91,24,f,36,The puzzle solved Joe,Non-sensible,edin_semantics,emo_sem_emo_sem,1.10319795971736,1,2,2,1,767842.363343605,34,A
71,3,8/11/91,24,f,37,The floor cleaned Tim,Non-sensible,edin_semantics,emo_sem_emo_sem,1.03253861132544,1,1,1,1,767844.139270902,5,A
71,3,8/11/91,24,f,38,The laptop fixed Jen,Non-sensible,edin_semantics,emo_sem_emo_sem,1.69059021398425,1,1,1,1,767846.573821323,37,A
71,3,8/11/91,24,f,39,The dishes washed Mark,Non-sensible,edin_semantics,emo_sem_emo_sem,1.18482014688198,2,1,1,1,767848.502607771,57,A
71,3,8/11/91,24,f,40,The lolly sucked Leah,Non-sensible,edin_semantics,emo_sem_emo_sem,1.44395295938011,1,2,2,1,767850.690208237,12,A
71,3,8/11/91,24,f,41,The toffee chewed Ben,Non-sensible,edin_semantics,emo_sem_emo_sem,0.737771280691959,1,1,1,1,767852.172089822,31,A
71,3,8/11/91,24,f,42,Erin described the church,Sensible,edin_semantics,emo_sem_emo_sem,1.2785892697284,1,1,1,1,767854.195008768,117,A
71,3,8/11/91,24,f,43,The parcel mailed Rob,Non-sensible,edin_semantics,emo_sem_emo_sem,1.17296859389171,1,2,2,1,767856.112065858,14,A
71,3,8/11/91,24,f,44,Hugh kissed the rose,Sensible,edin_semantics,emo_sem_emo_sem,1.52605782949831,2,2,2,1,767858.381948231,98,A
71,3,8/11/91,24,f,45,Beth washed the pan,Sensible,edin_semantics,emo_sem_emo_sem,1.19704277243,1,2,2,1,767860.322537803,132,A
71,3,8/11/91,24,f,46,Joe entered the office,Sensible,edin_semantics,emo_sem_emo_sem,0.950253496761434,1,1,1,1,767862.016115841,133,A
71,3,8/11/91,24,f,47,Luke watered the plants,Sensible,edin_semantics,emo_sem_emo_sem,1.46748929121532,2,1,1,1,767864.227207096,129,A
71,3,8/11/91,24,f,48,The movie watched Ella,Non-sensible,edin_semantics,emo_sem_emo_sem,1.30303003091831,1,1,1,1,767866.27366943,33,A
71,3,8/11/91,24,f,49,John carried the kettle,Sensible,edin_semantics,emo_sem_emo_sem,1.46769679675344,2,1,1,1,767868.484755233,105,A
71,3,8/11/91,24,f,50,Leo carried the wallet,Sensible,edin_semantics,emo_sem_emo_sem,1.38534176524263,2,2,2,1,767870.613516473,150,A
71,3,8/11/91,24,f,51,Zoe paid the debt,Sensible,edin_semantics,emo_sem_emo_sem,1.31461634871084,1,2,2,1,767872.671663906,134,A
71,3,8/11/91,24,f,52,The spoon licked Will,Non-sensible,edin_semantics,emo_sem_emo_sem,1.64415610325523,2,1,1,1,767875.059227938,21,A
71,3,8/11/91,24,f,53,The garlic crushed Erin,Non-sensible,edin_semantics,emo_sem_emo_sem,1.05564421671443,1,2,2,1,767876.858639289,6,A
71,3,8/11/91,24,f,54,The potatoes mashed Will,Non-sensible,edin_semantics,emo_sem_emo_sem,1.72596559068188,2,2,2,1,767879.328474965,28,A
71,3,8/11/91,24,f,55,Liam mixed the nuts,Sensible,edin_semantics,emo_sem_emo_sem,1.19691256026272,1,1,1,1,767881.26902541,83,A
71,3,8/11/91,24,f,56,Tim took the ticket,Sensible,edin_semantics,emo_sem_emo_sem,0.808861996862106,1,2,2,1,767882.821484239,128,A
71,3,8/11/91,24,f,57,Jay painted the portrait,Sensible,edin_semantics,emo_sem_emo_sem,1.39681422756985,2,2,2,1,767884.962041227,110,A
71,3,8/11/91,24,f,58,Tom visited the hospital,Sensible,edin_semantics,emo_sem_emo_sem,1.20869034773204,2,1,1,1,767886.914391909,91,A
71,3,8/11/91,24,f,59,The juice drank Matt,Non-sensible,edin_semantics,emo_sem_emo_sem,0.86741193360649,1,2,2,1,767888.525591503,60,A
71,3,8/11/91,24,f,60,Ryan stroked the blanket,Sensible,edin_semantics,emo_sem_emo_sem,1.74976844037883,2,2,2,1,767891.018983075,116,A
71,3,8/11/91,24,f,61,The picture painted Ryan,Non-sensible,edin_semantics,emo_sem_emo_sem,1.56179048796184,2,1,1,1,767893.324181491,35,A
71,3,8/11/91,24,f,62,The room entered Ryan,Non-sensible,edin_semantics,emo_sem_emo_sem,1.99694290035404,2,2,2,1,767896.064488382,58,A
71,3,8/11/91,24,f,63,The lever pulled Hugh,Non-sensible,edin_semantics,emo_sem_emo_sem,1.25550451118033,2,1,1,1,767898.063890239,45,A
71,3,8/11/91,24,f,64,The dish served Kate,Non-sensible,edin_semantics,emo_sem_emo_sem,3.17267128673848,2,2,2,1,767901.980323208,70,A
71,3,8/11/91,24,f,65,Josh crushed the ice,Sensible,edin_semantics,emo_sem_emo_sem,2.1375938586425,2,1,1,1,767904.861788115,81,A
71,3,8/11/91,24,f,66,The thread measured Amy,Non-sensible,edin_semantics,emo_sem_emo_sem,3.3961060786387,1,1,1,1,767909.001656517,51,A
71,3,8/11/91,24,f,67,The card posted Erin,Non-sensible,edin_semantics,emo_sem_emo_sem,1.46753226756118,1,2,2,1,767911.212802615,36,A
71,3,8/11/91,24,f,68,The letter typed Phil,Non-sensible,edin_semantics,emo_sem_emo_sem,1.94994849245995,1,1,1,1,767913.906107721,49,A
71,3,8/11/91,24,f,69,The shelf dusted Jake,Non-sensible,edin_semantics,emo_sem_emo_sem,1.58351347094867,1,1,1,1,767916.234791475,47,A
71,3,8/11/91,24,f,70,Ben climbed the stairs,Sensible,edin_semantics,emo_sem_emo_sem,2.18490481679328,2,1,1,1,767919.16330499,143,A
71,3,8/11/91,24,f,71,Josh taught the rules,Sensible,edin_semantics,emo_sem_emo_sem,1.59701223997399,1,2,2,1,767921.50372131,90,A
71,3,8/11/91,24,f,72,Jay sold the bed,Sensible,edin_semantics,emo_sem_emo_sem,3.41981816478074,2,1,1,1,767925.667184415,113,A
71,3,8/11/91,24,f,73,The bike kicked Matt,Non-sensible,edin_semantics,emo_sem_emo_sem,1.22036582569126,2,1,1,1,767927.631272154,39,A
71,3,8/11/91,24,f,74,Luke fixed the radio,Sensible,edin_semantics,emo_sem_emo_sem,4.45466339192353,2,2,2,1,767932.829701718,112,A
71,3,8/11/91,24,f,75,Leo passed the salt,Sensible,edin_semantics,emo_sem_emo_sem,1.33773991430644,1,2,1,0,767934.911380031,118,A
71,3,8/11/91,24,f,76,The kettle got Lily,Non-sensible,edin_semantics,emo_sem_emo_sem,2.91380916151684,2,1,1,1,767938.569072107,13,A
71,3,8/11/91,24,f,77,Ian mailed the invite,Sensible,edin_semantics,emo_sem_emo_sem,4.18441924732178,1,1,1,1,767943.497020515,89,A
71,3,8/11/91,24,f,78,Max searched the internet,Sensible,edin_semantics,emo_sem_emo_sem,1.8553214444546,2,1,1,1,767946.096255662,85,A
71,3,8/11/91,24,f,79,The sofa sold Carl,Non-sensible,edin_semantics,emo_sem_emo_sem,3.66632681072224,2,2,1,0,767950.506613881,38,A
71,3,8/11/91,24,f,80,Fred lent the car,Sensible,edin_semantics,emo_sem_emo_sem,3.27797605376691,2,2,2,1,767954.528868937,94,A
71,3,8/11/91,24,f,81,The jumper wore Joe,Non-sensible,edin_semantics,emo_sem_emo_sem,3.87721601233352,2,1,1,1,767959.151004109,25,A
71,3,8/11/91,24,f,82,The jar labeled Liz,Non-sensible,edin_semantics,emo_sem_emo_sem,4.18308890215121,2,1,1,1,767964.078905371,61,A
71,3,8/11/91,24,f,83,The number dialed Tom,Non-sensible,edin_semantics,emo_sem_emo_sem,3.73655350832269,2,1,1,1,767968.559913957,63,A
71,3,8/11/91,24,f,84,Fred stored the rice,Sensible,edin_semantics,emo_sem_emo_sem,2.37210951419547,1,1,1,1,767971.6766171,127,A
71,3,8/11/91,24,f,85,Amy lifted the crate,Sensible,edin_semantics,emo_sem_emo_sem,1.1964208970312,1,2,2,1,767973.617172997,144,A
71,3,8/11/91,24,f,86,The milk sniffed Phil,Non-sensible,edin_semantics,emo_sem_emo_sem,3.98357562627643,2,2,2,1,767978.345120635,18,A
71,3,8/11/91,24,f,87,The fur stroked Rob,Non-sensible,edin_semantics,emo_sem_emo_sem,2.78415664203931,1,1,1,1,767981.87345782,41,A
71,3,8/11/91,24,f,88,The bucket lent Max,Non-sensible,edin_semantics,emo_sem_emo_sem,1.23169011552818,1,1,1,1,767983.849300895,19,A
71,3,8/11/91,24,f,89,The wine stored Leo,Non-sensible,edin_semantics,emo_sem_emo_sem,1.86662071815226,1,2,2,1,767986.460266685,52,A
71,3,8/11/91,24,f,90,Lucy cut the ribbon,Sensible,edin_semantics,emo_sem_emo_sem,4.84236405021511,2,1,1,1,767992.046818974,95,A
71,3,8/11/91,24,f,91,The ham ate Tim,Non-sensible,edin_semantics,emo_sem_emo_sem,2.16073987458367,2,1,1,1,767994.95179263,67,A
71,3,8/11/91,24,f,92,Dan brushed the hair,Sensible,edin_semantics,emo_sem_emo_sem,2.13754799566232,1,1,1,1,767997.833275176,147,A
71,3,8/11/91,24,f,93,Kate wore the dress,Sensible,edin_semantics,emo_sem_emo_sem,3.87737156136427,2,2,2,1,768002.45536224,100,A
71,3,8/11/91,24,f,94,The garden watered Jeff,Non-sensible,edin_semantics,emo_sem_emo_sem,1.24340215546545,1,2,2,1,768004.442987914,54,A
71,3,8/11/91,24,f,95,The handle pulled Tim,Non-sensible,edin_semantics,emo_sem_emo_sem,1.20831478503533,1,1,1,1,768006.395356878,73,A
71,3,8/11/91,24,f,96,Alex wrote the report,Sensible,edin_semantics,emo_sem_emo_sem,1.11418260750361,1,1,1,1,768008.253619,149,A
71,3,8/11/91,24,f,97,Rose built the shed,Sensible,edin_semantics,emo_sem_emo_sem,2.72532158566173,1,1,1,1,768011.723102847,121,A
71,3,8/11/91,24,f,98,The wall punched Jane,Non-sensible,edin_semantics,emo_sem_emo_sem,2.76078932953533,1,2,2,1,768015.227947317,50,A
71,3,8/11/91,24,f,99,Max kicked the door,Sensible,edin_semantics,emo_sem_emo_sem,3.04286353895441,1,2,2,1,768019.014968627,114,A
71,3,8/11/91,24,f,100,Fred chopped the carrots,Sensible,edin_semantics,emo_sem_emo_sem,1.69027815375011,2,2,2,1,768021.449531557,102,A
71,3,8/11/91,24,f,101,The photo took Beth,Non-sensible,edin_semantics,emo_sem_emo_sem,1.60819445108064,1,1,1,1,768023.801731758,53,A
71,3,8/11/91,24,f,102,The room tidied Sam,Non-sensible,edin_semantics,emo_sem_emo_sem,2.40763274265919,1,2,2,1,768026.953741644,2,A
71,3,8/11/91,24,f,103,The house built Kate,Non-sensible,edin_semantics,emo_sem_emo_sem,2.30162592034321,1,2,2,1,768029.999802757,46,A
71,3,8/11/91,24,f,104,Sara jumped the hedge,Sensible,edin_semantics,emo_sem_emo_sem,1.40801311610267,1,2,2,1,768032.152129835,92,A
71,3,8/11/91,24,f,105,Lucy wiped the desk,Sensible,edin_semantics,emo_sem_emo_sem,2.38437287125271,1,1,1,1,768035.280604351,115,A
71,3,8/11/91,24,f,106,Jay squeezed the lemon,Sensible,edin_semantics,emo_sem_emo_sem,2.45481445081532,2,2,2,1,768038.479581063,76,A
71,3,8/11/91,24,f,107,Alex dusted the house,Sensible,edin_semantics,emo_sem_emo_sem,1.52579676383175,1,2,2,1,768040.74949198,122,A
71,3,8/11/91,24,f,108,Josh scrubbed the pot,Sensible,edin_semantics,emo_sem_emo_sem,1.06709230435081,2,1,1,1,768042.560718964,131,A
71,3,8/11/91,24,f,109,Erin punched the monitor,Sensible,edin_semantics,emo_sem_emo_sem,1.25511611974798,1,1,1,1,768044.560085222,125,A
71,3,8/11/91,24,f,110,The fence jumped Jon,Non-sensible,edin_semantics,emo_sem_emo_sem,1.49093967012595,1,1,1,1,768046.794694848,17,A
71,3,8/11/91,24,f,111,Ian labeled the box,Sensible,edin_semantics,emo_sem_emo_sem,3.14903585263528,1,2,2,1,768050.687607842,136,A
71,3,8/11/91,24,f,112,Hugh dialed the hotline,Sensible,edin_semantics,emo_sem_emo_sem,0.985083970823325,2,2,2,1,768052.416494547,138,A
71,3,8/11/91,24,f,113,The scarf knitted Tom,Non-sensible,edin_semantics,emo_sem_emo_sem,2.16099324310198,2,2,2,1,768055.321490654,66,A
71,3,8/11/91,24,f,114,Owen swallowed the gum,Sensible,edin_semantics,emo_sem_emo_sem,0.891133320634253,2,1,1,1,768056.956291365,97,A
71,3,8/11/91,24,f,115,The paper cut Jon,Non-sensible,edin_semantics,emo_sem_emo_sem,1.31467119185254,2,2,2,1,768059.014483699,20,A
71,3,8/11/91,24,f,116,Liz weighed the sugar,Sensible,edin_semantics,emo_sem_emo_sem,1.3261013191659,1,1,1,1,768061.084441954,139,A
71,3,8/11/91,24,f,117,Phil cancelled the party,Sensible,edin_semantics,emo_sem_emo_sem,1.25546762847807,1,2,2,1,768063.083831945,82,A
71,3,8/11/91,24,f,118,The bill paid Mike,Non-sensible,edin_semantics,emo_sem_emo_sem,2.46700692886952,2,1,1,1,768066.29460216,59,A
71,3,8/11/91,24,f,119,The tree hugged Amy,Non-sensible,edin_semantics,emo_sem_emo_sem,3.41860712738708,2,1,1,1,768070.458014591,11,A
71,3,8/11/91,24,f,120,Phil solved the problem,Sensible,edin_semantics,emo_sem_emo_sem,3.51318253949285,1,1,1,1,768074.7155592,109,A
71,3,8/11/91,24,f,121,The plans cancelled Ian,Non-sensible,edin_semantics,emo_sem_emo_sem,2.45439911901485,1,1,1,1,768077.914550665,7,A
71,3,8/11/91,24,f,122,Ben got the radio,Sensible,edin_semantics,emo_sem_emo_sem,6.58281750930473,1,2,2,1,768085.241673477,88,A
71,3,8/11/91,24,f,123,Ryan knitted the socks,Sensible,edin_semantics,emo_sem_emo_sem,3.20756365964189,1,1,1,1,768089.19348984,141,A
71,3,8/11/91,24,f,124,The museum visited Mary,Non-sensible,edin_semantics,emo_sem_emo_sem,1.59633103141095,2,2,2,1,768091.533909367,16,A
71,3,8/11/91,24,f,125,The money offered Matt,Non-sensible,edin_semantics,emo_sem_emo_sem,1.74903976533096,1,1,1,1,768094.027289714,9,A
71,3,8/11/91,24,f,126,The fruits mixed Jack,Non-sensible,edin_semantics,emo_sem_emo_sem,3.11364379851148,2,2,2,1,768097.884901738,8,A
71,3,8/11/91,24,f,127,The mirror kissed Max,Non-sensible,edin_semantics,emo_sem_emo_sem,6.38321282831021,1,1,1,1,768105.012174197,23,A
71,3,8/11/91,24,f,128,Rob measured the curtains,Sensible,edin_semantics,emo_sem_emo_sem,2.65364331100136,2,2,2,1,768108.411077913,126,A
71,3,8/11/91,24,f,129,The folder carried Dan,Non-sensible,edin_semantics,emo_sem_emo_sem,1.58393393433653,2,2,2,1,768110.739811058,30,A
71,3,8/11/91,24,f,130,Adam watched the opera,Sensible,edin_semantics,emo_sem_emo_sem,3.16019882052206,1,2,2,1,768114.644496707,108,A
71,3,8/11/91,24,f,131,The lesson taught Eve,Non-sensible,edin_semantics,emo_sem_emo_sem,2.18423964420799,2,1,1,1,768117.57296853,15,A
71,3,8/11/91,24,f,132,The story wrote Ewan,Non-sensible,edin_semantics,emo_sem_emo_sem,1.00804461084772,2,2,2,1,768119.325390284,74,A
71,3,8/11/91,24,f,133,The shirt ironed Josh,Non-sensible,edin_semantics,emo_sem_emo_sem,5.0424013818847,2,1,1,1,768125.111837185,55,A
71,3,8/11/91,24,f,134,Sam sucked the candy,Sensible,edin_semantics,emo_sem_emo_sem,2.6308959495509,1,1,1,1,768128.487270958,87,A
71,3,8/11/91,24,f,135,The flour weighed Jen,Non-sensible,edin_semantics,emo_sem_emo_sem,10.0758611001074,2,2,2,1,768139.307481299,64,A
71,3,8/11/91,24,f,136,The book read Sean,Non-sensible,edin_semantics,emo_sem_emo_sem,1.58431623224169,2,2,2,1,768141.636188786,4,A
71,3,8/11/91,24,f,137,Kate hugged the pillow,Sensible,edin_semantics,emo_sem_emo_sem,2.48986461781897,1,2,2,1,768144.870514575,86,A
71,3,8/11/91,24,f,138,Erin tidied the garage,Sensible,edin_semantics,emo_sem_emo_sem,2.13673914072569,1,1,1,1,768147.751949655,77,A
71,3,8/11/91,24,f,139,Jack drank the beer,Sensible,edin_semantics,emo_sem_emo_sem,1.38403483270667,1,1,1,1,768149.880688765,135,A
71,3,8/11/91,24,f,140,Mike ate the steak,Sensible,edin_semantics,emo_sem_emo_sem,1.48952273069881,2,2,2,1,768152.115308013,142,A
71,3,8/11/91,24,f,141,The bowl scrubbed Liz,Non-sensible,edin_semantics,emo_sem_emo_sem,2.63104380131699,1,2,2,1,768155.490730561,56,A
71,3,8/11/91,24,f,142,The towels passed Phil,Non-sensible,edin_semantics,emo_sem_emo_sem,3.11364828865044,1,1,1,1,768159.348386844,43,A
71,3,8/11/91,24,f,143,Eve ironed the trousers,Sensible,edin_semantics,emo_sem_emo_sem,1.06707177823409,2,2,2,1,768161.159598754,130,A
71,3,8/11/91,24,f,144,The pen described John,Non-sensible,edin_semantics,emo_sem_emo_sem,1.2083080499433,2,2,2,1,768163.1119597,42,A
71,3,8/11/91,24,f,145,Ian pushed the button,Sensible,edin_semantics,emo_sem_emo_sem,6.21872245823033,1,1,1,1,768170.074500607,101,A
71,3,8/11/91,24,f,146,Andy pulled the rope,Sensible,edin_semantics,emo_sem_emo_sem,3.57226615364198,1,2,1,0,768174.390823826,148,A
71,3,8/11/91,24,f,147,The cheese grated Andy,Non-sensible,edin_semantics,emo_sem_emo_sem,3.94848697306588,1,1,1,1,768179.083536242,65,A
71,3,8/11/91,24,f,148,The lorry dented Lily,Non-sensible,edin_semantics,emo_sem_emo_sem,3.92532171390485,1,1,1,1,768183.752680896,71,A
71,3,8/11/91,24,f,149,The tomato sliced Liz,Non-sensible,edin_semantics,emo_sem_emo_sem,3.11357067443896,2,1,1,1,768187.610298051,3,A
71,3,8/11/91,24,f,150,The room searched Jen,Non-sensible,edin_semantics,emo_sem_emo_sem,1.31385528098326,1,2,2,1,768189.668490706,10,A
71,3,8/11/91,24,f,151,The sheets counted Bill,Non-sensible,edin_semantics,emo_sem_emo_sem,1.14963752275798,2,2,2,1,768191.562031348,48,A
71,3,8/11/91,24,f,152,The cake iced Mary,Non-sensible,edin_semantics,emo_sem_emo_sem,0.820584941306151,1,2,2,1,768193.126241666,44,A
71,3,8/11/91,24,f,153,Tom offered the sweets,Sensible,edin_semantics,emo_sem_emo_sem,4.52371593471617,1,2,2,1,768198.39524206,84,A
71,3,8/11/91,24,f,154,Luke read the poster,Sensible,edin_semantics,emo_sem_emo_sem,1.05513042386156,2,1,1,1,768200.194664957,79,A
71,3,8/11/91,24,f,155,The herbs chopped Phil,Non-sensible,edin_semantics,emo_sem_emo_sem,0.890681747347116,1,1,1,1,768201.829502551,27,A
71,3,8/11/91,24,f,156,Tim sniffed the perfume,Sensible,edin_semantics,emo_sem_emo_sem,0.72547970036976,1,1,1,1,768203.299582615,93,A
71,3,8/11/91,24,f,157,Jane licked the plate,Sensible,edin_semantics,emo_sem_emo_sem,1.9021705663763,1,2,2,1,768205.94586509,96,A
71,3,8/11/91,24,f,158,Bill trimmed the hair,Sensible,edin_semantics,emo_sem_emo_sem,4.65443420561496,1,1,1,1,768211.344206585,107,A
71,3,8/11/91,24,f,159,The papers filed Lara,Non-sensible,edin_semantics,emo_sem_emo_sem,1.10269795777276,2,2,2,1,768213.190699259,24,A
71,3,8/11/91,24,f,160,Joe iced the donut,Sensible,edin_semantics,emo_sem_emo_sem,1.2672220034292,1,1,1,1,768215.201828872,119,A
71,3,8/11/91,24,f,161,Anna polished the trophy,Sensible,edin_semantics,emo_sem_emo_sem,3.4196539564291,1,2,2,1,768219.365265357,104,A
71,3,8/11/91,24,f,162,The eggs whisked Dan,Non-sensible,edin_semantics,emo_sem_emo_sem,1.24381620448548,2,2,2,1,768221.352902256,62,A
71,3,8/11/91,24,f,163,The trolley pushed Matt,Non-sensible,edin_semantics,emo_sem_emo_sem,4.26642726012506,2,2,2,1,768226.36315406,26,A
71,3,8/11/91,24,f,164,The bushes trimmed Jon,Non-sensible,edin_semantics,emo_sem_emo_sem,3.53715216345154,2,2,2,1,768230.644191703,32,A
71,3,8/11/91,24,f,165,Ian dented the bowl,Sensible,edin_semantics,emo_sem_emo_sem,2.41972226963844,1,2,2,1,768233.807885406,146,A
71,3,8/11/91,24,f,166,Emma pulled the rope,Sensible,edin_semantics,emo_sem_emo_sem,5.55998355348129,2,2,2,1,768240.11183943,120,A
71,3,8/11/91,24,f,167,Jack cleaned the bath,Sensible,edin_semantics,emo_sem_emo_sem,1.45556814200245,2,2,2,1,768242.31115418,80,A
71,3,8/11/91,24,f,168,The gun carried Ryan,Non-sensible,edin_semantics,emo_sem_emo_sem,1.79668170632795,2,1,1,1,768244.851578967,75,A
71,3,8/11/91,24,f,169,Eve typed the message,Sensible,edin_semantics,emo_sem_emo_sem,1.28995108383242,1,2,2,1,768246.886239139,124,A
71,3,8/11/91,24,f,170,The box lifted Kate,Non-sensible,edin_semantics,emo_sem_emo_sem,1.06668274535332,1,1,1,1,768248.69743373,69,A
71,3,8/11/91,24,f,171,Adam chewed the fat,Sensible,edin_semantics,emo_sem_emo_sem,1.10194587020669,2,2,2,1,768250.543961683,106,A
71,3,8/11/91,24,f,172,Tom whisked the cream,Sensible,edin_semantics,emo_sem_emo_sem,0.702562357415445,1,1,1,1,768251.990548071,137,A
71,3,8/11/91,24,f,173,The table wiped Beth,Non-sensible,edin_semantics,emo_sem_emo_sem,0.914624110213481,1,2,2,1,768253.648872927,40,A
