subject_column,AssignedList_column,subject_dob_column,subject_age_column,subject_gender_column,trialnum_column,Stim_column,Type_column,Experiment_column,OrderGroup_column,ReactionTime_column,StimSide_column,StimPosition_column,Response_column,Valid_column,TrialEndSecs_column,PairID_column,List_column
73,1,23/1/95,21,F,1,The towels passed Phil,Non-sensible,edin_semantics,emo_sem_emo_sem,1.44972398865502,2,1,1,1,780255.428390039,43,A
73,1,23/1/95,21,F,2,Fred chopped the carrots,Sensible,edin_semantics,emo_sem_emo_sem,0.784918671939522,2,2,2,1,780256.957350381,102,A
73,1,23/1/95,21,F,3,Emma pulled the rope,Sensible,edin_semantics,emo_sem_emo_sem,0.879029040457681,2,2,2,1,780258.580350213,120,A
73,1,23/1/95,21,F,4,Jack cleaned the bath,Sensible,edin_semantics,emo_sem_emo_sem,0.702865116880275,1,2,2,1,780260.027032176,80,A
73,1,23/1/95,21,F,5,Josh taught the rules,Sensible,edin_semantics,emo_sem_emo_sem,1.29120221117046,2,2,2,1,780262.061636543,90,A
73,1,23/1/95,21,F,6,The dish served Kate,Non-sensible,edin_semantics,emo_sem_emo_sem,0.762361817876808,1,2,2,1,780263.567052856,70,A
73,1,23/1/95,21,F,7,The plans cancelled Ian,Non-sensible,edin_semantics,emo_sem_emo_sem,0.809455969720148,2,1,1,1,780265.119528042,7,A
73,1,23/1/95,21,F,8,Ryan knitted the socks,Sensible,edin_semantics,emo_sem_emo_sem,0.856391044449992,1,1,1,1,780266.719077174,141,A
73,1,23/1/95,21,F,9,The laptop fixed Jen,Non-sensible,edin_semantics,emo_sem_emo_sem,1.29170285444707,2,1,1,1,780268.75370816,37,A
73,1,23/1/95,21,F,10,The herbs chopped Phil,Non-sensible,edin_semantics,emo_sem_emo_sem,1.09182331687771,2,1,1,1,780270.588439083,27,A
73,1,23/1/95,21,F,11,Mike ate the steak,Sensible,edin_semantics,emo_sem_emo_sem,0.938985653570853,2,2,2,1,780272.270293856,142,A
73,1,23/1/95,21,F,12,Liam mixed the nuts,Sensible,edin_semantics,emo_sem_emo_sem,1.08017766580451,2,1,1,1,780274.09328227,83,A
73,1,23/1/95,21,F,13,The ham ate Tim,Non-sensible,edin_semantics,emo_sem_emo_sem,0.891853015404195,2,1,1,1,780275.728026856,67,A
73,1,23/1/95,21,F,14,Adam watched the opera,Sensible,edin_semantics,emo_sem_emo_sem,1.46810411068145,2,2,2,1,780277.939122601,108,A
73,1,23/1/95,21,F,15,Sam sucked the candy,Sensible,edin_semantics,emo_sem_emo_sem,0.997489727335051,2,1,1,1,780279.679787414,87,A
73,1,23/1/95,21,F,16,The milk sniffed Phil,Non-sensible,edin_semantics,emo_sem_emo_sem,1.29182536934968,2,2,2,1,780281.714451435,18,A
73,1,23/1/95,21,F,17,The ball squeezed Josh,Non-sensible,edin_semantics,emo_sem_emo_sem,0.962347193155438,1,1,1,1,780283.419790262,1,A
73,1,23/1/95,21,F,18,The table wiped Beth,Non-sensible,edin_semantics,emo_sem_emo_sem,0.903304631123319,2,2,2,1,780285.06636395,40,A
73,1,23/1/95,21,F,19,The mirror kissed Max,Non-sensible,edin_semantics,emo_sem_emo_sem,0.762527309241705,1,1,1,1,780286.571787961,23,A
73,1,23/1/95,21,F,20,Ian mailed the invite,Sensible,edin_semantics,emo_sem_emo_sem,0.750302759348415,1,1,1,1,780288.065442523,89,A
73,1,23/1/95,21,F,21,The letter typed Phil,Non-sensible,edin_semantics,emo_sem_emo_sem,0.868076785467565,1,1,1,1,780289.676709468,49,A
73,1,23/1/95,21,F,22,The garlic crushed Erin,Non-sensible,edin_semantics,emo_sem_emo_sem,0.762574775726534,1,2,2,1,780291.182133158,6,A
73,1,23/1/95,21,F,23,Erin described the church,Sensible,edin_semantics,emo_sem_emo_sem,0.727163157775067,1,1,1,1,780292.652286667,117,A
73,1,23/1/95,21,F,24,The coins polished Jon,Non-sensible,edin_semantics,emo_sem_emo_sem,1.32697303511668,2,1,1,1,780294.722224396,29,A
73,1,23/1/95,21,F,25,The puzzle solved Joe,Non-sensible,edin_semantics,emo_sem_emo_sem,0.856552366400138,1,2,2,1,780296.321711629,34,A
73,1,23/1/95,21,F,26,Leo passed the salt,Sensible,edin_semantics,emo_sem_emo_sem,0.891679506166838,1,2,2,1,780297.95649438,118,A
73,1,23/1/95,21,F,27,Fred lent the car,Sensible,edin_semantics,emo_sem_emo_sem,0.962102804798633,1,2,2,1,780299.661851489,94,A
73,1,23/1/95,21,F,28,The tomato sliced Liz,Non-sensible,edin_semantics,emo_sem_emo_sem,0.727074959897436,1,1,1,1,780301.132017506,3,A
73,1,23/1/95,21,F,29,The story wrote Ewan,Non-sensible,edin_semantics,emo_sem_emo_sem,1.15008813375607,2,2,2,1,780303.025528963,74,A
73,1,23/1/95,21,F,30,Bill trimmed the hair,Sensible,edin_semantics,emo_sem_emo_sem,0.833235406898893,2,1,1,1,780304.601537594,107,A
73,1,23/1/95,21,F,31,The cheese grated Andy,Non-sensible,edin_semantics,emo_sem_emo_sem,1.19731442199554,2,1,1,1,780306.542096057,65,A
73,1,23/1/95,21,F,32,Jay squeezed the lemon,Sensible,edin_semantics,emo_sem_emo_sem,0.926772649516352,1,2,2,1,780308.212169835,76,A
73,1,23/1/95,21,F,33,Liz weighed the sugar,Sensible,edin_semantics,emo_sem_emo_sem,0.833014751784503,2,1,1,1,780309.788161148,139,A
73,1,23/1/95,21,F,34,Rob measured the curtains,Sensible,edin_semantics,emo_sem_emo_sem,0.856111056287773,2,2,2,1,780311.387699375,126,A
73,1,23/1/95,21,F,35,Alex wrote the report,Sensible,edin_semantics,emo_sem_emo_sem,1.46789051149972,1,1,1,1,780313.598761124,149,A
73,1,23/1/95,21,F,36,John carried the kettle,Sensible,edin_semantics,emo_sem_emo_sem,1.17400932917371,2,1,1,1,780315.515835853,105,A
73,1,23/1/95,21,F,37,Eve ironed the trousers,Sensible,edin_semantics,emo_sem_emo_sem,0.985826436779462,2,2,2,1,780317.24469658,130,A
73,1,23/1/95,21,F,38,The pill swallowed Luke,Non-sensible,edin_semantics,emo_sem_emo_sem,1.9974124339642,2,2,1,0,780319.985053182,22,A
73,1,23/1/95,21,F,39,The house built Kate,Non-sensible,edin_semantics,emo_sem_emo_sem,1.13914966967423,1,2,2,1,780321.866858372,46,A
73,1,23/1/95,21,F,40,Luke watered the plants,Sensible,edin_semantics,emo_sem_emo_sem,1.16234475560486,2,1,1,1,780323.772108167,129,A
73,1,23/1/95,21,F,41,The fence jumped Jon,Non-sensible,edin_semantics,emo_sem_emo_sem,0.938662688829936,1,1,1,1,780325.453947546,17,A
73,1,23/1/95,21,F,42,The card posted Erin,Non-sensible,edin_semantics,emo_sem_emo_sem,0.773977000499144,1,2,2,1,780326.971113423,36,A
73,1,23/1/95,21,F,43,The juice drank Matt,Non-sensible,edin_semantics,emo_sem_emo_sem,1.0214548612712,1,2,2,1,780328.735307833,60,A
73,1,23/1/95,21,F,44,Lucy counted the shoes,Sensible,edin_semantics,emo_sem_emo_sem,0.856467375764623,1,1,1,1,780330.334789935,123,A
73,1,23/1/95,21,F,45,The lesson taught Eve,Non-sensible,edin_semantics,emo_sem_emo_sem,1.06817665754352,2,1,1,1,780332.145987733,15,A
73,1,23/1/95,21,F,46,Kate wore the dress,Sensible,edin_semantics,emo_sem_emo_sem,1.04434654652141,1,2,2,1,780333.933681913,100,A
73,1,23/1/95,21,F,47,Ian dented the bowl,Sensible,edin_semantics,emo_sem_emo_sem,1.03309377713595,2,2,2,1,780335.709636471,146,A
73,1,23/1/95,21,F,48,The tree hugged Amy,Non-sensible,edin_semantics,emo_sem_emo_sem,1.24446117167827,2,1,1,1,780337.697261503,11,A
73,1,23/1/95,21,F,49,The pen described John,Non-sensible,edin_semantics,emo_sem_emo_sem,1.22142227611039,2,2,2,1,780339.66137522,42,A
73,1,23/1/95,21,F,50,The lolly sucked Leah,Non-sensible,edin_semantics,emo_sem_emo_sem,1.29142030060757,2,2,2,1,780341.696067143,12,A
73,1,23/1/95,21,F,51,Max searched the internet,Sensible,edin_semantics,emo_sem_emo_sem,0.856635753531009,2,1,1,1,780343.295547642,85,A
73,1,23/1/95,21,F,52,Joe iced the donut,Sensible,edin_semantics,emo_sem_emo_sem,0.8091467958875,1,1,1,1,780344.847973437,119,A
73,1,23/1/95,21,F,53,Adam chewed the fat,Sensible,edin_semantics,emo_sem_emo_sem,1.11518453562167,2,2,2,1,780346.706263141,106,A
73,1,23/1/95,21,F,54,The toffee chewed Ben,Non-sensible,edin_semantics,emo_sem_emo_sem,0.809376110439189,2,1,1,1,780348.258729027,31,A
73,1,23/1/95,21,F,55,Erin tidied the garage,Sensible,edin_semantics,emo_sem_emo_sem,1.15046786586754,2,1,1,1,780350.15226582,77,A
73,1,23/1/95,21,F,56,The potatoes mashed Will,Non-sensible,edin_semantics,emo_sem_emo_sem,1.38553195202257,2,2,2,1,780352.281017117,28,A
73,1,23/1/95,21,F,57,The folder carried Dan,Non-sensible,edin_semantics,emo_sem_emo_sem,0.809178547235206,1,2,2,1,780353.833461514,30,A
73,1,23/1/95,21,F,58,Joe entered the office,Sensible,edin_semantics,emo_sem_emo_sem,0.856739666662179,1,1,1,1,780355.43299878,133,A
73,1,23/1/95,21,F,59,The room tidied Sam,Non-sensible,edin_semantics,emo_sem_emo_sem,1.86773137038108,2,2,2,1,780358.043931535,2,A
73,1,23/1/95,21,F,60,The wall punched Jane,Non-sensible,edin_semantics,emo_sem_emo_sem,1.1270845172694,2,2,2,1,780359.913940977,50,A
73,1,23/1/95,21,F,61,Kate hugged the pillow,Sensible,edin_semantics,emo_sem_emo_sem,0.785559790558182,2,2,2,1,780361.442870851,86,A
73,1,23/1/95,21,F,62,Ben got the radio,Sensible,edin_semantics,emo_sem_emo_sem,0.750934576964937,1,2,2,1,780362.936562617,88,A
73,1,23/1/95,21,F,63,Andy pulled the rope,Sensible,edin_semantics,emo_sem_emo_sem,0.880184914101847,2,2,2,1,780364.559606066,148,A
73,1,23/1/95,21,F,64,The handle pulled Tim,Non-sensible,edin_semantics,emo_sem_emo_sem,1.22093510301784,1,1,1,1,780366.523675524,73,A
73,1,23/1/95,21,F,65,The sofa sold Carl,Non-sensible,edin_semantics,emo_sem_emo_sem,1.59741442231461,2,2,2,1,780368.864138669,38,A
73,1,23/1/95,21,F,66,The movie watched Ella,Non-sensible,edin_semantics,emo_sem_emo_sem,3.52631312247831,2,1,1,1,780373.133424183,33,A
73,1,23/1/95,21,F,67,Tom grated the carrots,Sensible,edin_semantics,emo_sem_emo_sem,2.0198852593312,1,2,2,1,780375.897260028,140,A
73,1,23/1/95,21,F,68,The bucket lent Max,Non-sensible,edin_semantics,emo_sem_emo_sem,0.973409455036744,1,1,1,1,780377.614386906,19,A
73,1,23/1/95,21,F,69,The teeth brushed Carl,Non-sensible,edin_semantics,emo_sem_emo_sem,1.04446938226465,2,2,2,1,780379.40211861,72,A
73,1,23/1/95,21,F,70,Zoe paid the debt,Sensible,edin_semantics,emo_sem_emo_sem,1.15011186699849,1,2,2,1,780381.29559158,134,A
73,1,23/1/95,21,F,71,Hugh kissed the rose,Sensible,edin_semantics,emo_sem_emo_sem,2.14999801153317,2,2,2,1,780384.188848386,98,A
73,1,23/1/95,21,F,72,The papers filed Lara,Non-sensible,edin_semantics,emo_sem_emo_sem,0.914961507311091,1,2,2,1,780385.84715945,24,A
73,1,23/1/95,21,F,73,Erin punched the monitor,Sensible,edin_semantics,emo_sem_emo_sem,0.985773197258823,1,1,1,1,780387.57608368,125,A
73,1,23/1/95,21,F,74,Ian filed the report,Sensible,edin_semantics,emo_sem_emo_sem,1.5858341982821,1,1,1,1,780389.90475685,99,A
73,1,23/1/95,21,F,75,Phil cancelled the party,Sensible,edin_semantics,emo_sem_emo_sem,1.87976926146075,2,2,2,1,780392.527502672,82,A
73,1,23/1/95,21,F,76,Lucy wiped the desk,Sensible,edin_semantics,emo_sem_emo_sem,2.46733342134394,2,1,1,1,780395.738228306,115,A
73,1,23/1/95,21,F,77,Sara jumped the hedge,Sensible,edin_semantics,emo_sem_emo_sem,1.95028717245441,2,2,2,1,780398.431535336,92,A
73,1,23/1/95,21,F,78,The money offered Matt,Non-sensible,edin_semantics,emo_sem_emo_sem,0.88002519577276,2,1,1,1,780400.054585521,9,A
73,1,23/1/95,21,F,79,The wine stored Leo,Non-sensible,edin_semantics,emo_sem_emo_sem,0.868145740125328,1,2,2,1,780401.665857277,52,A
73,1,23/1/95,21,F,80,Alex dusted the house,Sensible,edin_semantics,emo_sem_emo_sem,1.09175019280519,1,2,2,1,780403.500556128,122,A
73,1,23/1/95,21,F,81,The bill paid Mike,Non-sensible,edin_semantics,emo_sem_emo_sem,0.715274080634117,1,1,1,1,780404.958930888,59,A
73,1,23/1/95,21,F,82,The shirt ironed Josh,Non-sensible,edin_semantics,emo_sem_emo_sem,3.16158080147579,2,1,1,1,780408.863625197,55,A
73,1,23/1/95,21,F,83,The lever pulled Hugh,Non-sensible,edin_semantics,emo_sem_emo_sem,1.44414442905691,2,1,1,1,780411.051173385,45,A
73,1,23/1/95,21,F,84,The hill climbed Luke,Non-sensible,edin_semantics,emo_sem_emo_sem,1.66760038852226,2,2,2,1,780413.462241676,68,A
73,1,23/1/95,21,F,85,Ben climbed the stairs,Sensible,edin_semantics,emo_sem_emo_sem,0.715106664923951,1,1,1,1,780414.920593986,143,A
73,1,23/1/95,21,F,86,Tim sniffed the perfume,Sensible,edin_semantics,emo_sem_emo_sem,1.10327589465305,2,1,1,1,780416.767099809,93,A
73,1,23/1/95,21,F,87,Jack posted the gift,Sensible,edin_semantics,emo_sem_emo_sem,2.40868374088313,1,1,1,1,780419.919050041,111,A
73,1,23/1/95,21,F,88,The jumper wore Joe,Non-sensible,edin_semantics,emo_sem_emo_sem,1.3150599040091,2,1,1,1,780421.977282786,25,A
73,1,23/1/95,21,F,89,The book read Sean,Non-sensible,edin_semantics,emo_sem_emo_sem,1.50328641419765,2,2,2,1,780424.223607018,4,A
73,1,23/1/95,21,F,90,Josh crushed the ice,Sensible,edin_semantics,emo_sem_emo_sem,0.738370385020971,2,1,1,1,780425.705535108,81,A
73,1,23/1/95,21,F,91,Fred served the dessert,Sensible,edin_semantics,emo_sem_emo_sem,0.985486153280362,2,1,1,1,780427.434379478,145,A
73,1,23/1/95,21,F,92,Owen swallowed the gum,Sensible,edin_semantics,emo_sem_emo_sem,0.868139325757511,1,1,1,1,780429.045733338,97,A
73,1,23/1/95,21,F,93,Jay painted the portrait,Sensible,edin_semantics,emo_sem_emo_sem,1.05639886995777,1,2,2,1,780430.84512705,110,A
73,1,23/1/95,21,F,94,Jane licked the plate,Sensible,edin_semantics,emo_sem_emo_sem,1.03272879810538,2,2,2,1,780432.621077438,96,A
73,1,23/1/95,21,F,95,The bowl scrubbed Liz,Non-sensible,edin_semantics,emo_sem_emo_sem,1.0326794073917,2,2,2,1,780434.396985492,56,A
73,1,23/1/95,21,F,96,Beth washed the pan,Sensible,edin_semantics,emo_sem_emo_sem,0.985946385888383,2,2,2,1,780436.125852633,132,A
73,1,23/1/95,21,F,97,The bushes trimmed Jon,Non-sensible,edin_semantics,emo_sem_emo_sem,1.03237953456119,1,2,2,1,780437.90193131,32,A
73,1,23/1/95,21,F,98,Tom visited the hospital,Sensible,edin_semantics,emo_sem_emo_sem,1.12621889496222,2,1,1,1,780439.771806049,91,A
73,1,23/1/95,21,F,99,Ryan stroked the blanket,Sensible,edin_semantics,emo_sem_emo_sem,0.891302019124851,2,2,2,1,780441.406578858,116,A
73,1,23/1/95,21,F,100,The fur stroked Rob,Non-sensible,edin_semantics,emo_sem_emo_sem,0.915379404905252,2,1,1,1,780443.064882867,41,A
73,1,23/1/95,21,F,101,Tim took the ticket,Sensible,edin_semantics,emo_sem_emo_sem,0.903445106232539,1,2,2,1,780444.711451744,128,A
73,1,23/1/95,21,F,102,Tom offered the sweets,Sensible,edin_semantics,emo_sem_emo_sem,0.903336703078821,1,2,2,1,780446.357997208,84,A
73,1,23/1/95,21,F,103,Liam sliced the onion,Sensible,edin_semantics,emo_sem_emo_sem,0.938855762127787,2,2,2,1,780448.039827927,78,A
73,1,23/1/95,21,F,104,Max kicked the door,Sensible,edin_semantics,emo_sem_emo_sem,0.762020572321489,2,2,2,1,780449.545242637,114,A
73,1,23/1/95,21,F,105,The lorry dented Lily,Non-sensible,edin_semantics,emo_sem_emo_sem,0.950142207089812,1,1,1,1,780451.238847295,71,A
73,1,23/1/95,21,F,106,Josh scrubbed the pot,Sensible,edin_semantics,emo_sem_emo_sem,0.938584754010662,1,1,1,1,780452.920696937,131,A
73,1,23/1/95,21,F,107,Leo carried the wallet,Sensible,edin_semantics,emo_sem_emo_sem,1.47956406499725,2,2,2,1,780455.143580411,150,A
73,1,23/1/95,21,F,108,The museum visited Mary,Non-sensible,edin_semantics,emo_sem_emo_sem,2.25565845670644,1,2,2,1,780458.142621781,16,A
73,1,23/1/95,21,F,109,The eggs whisked Dan,Non-sensible,edin_semantics,emo_sem_emo_sem,2.19667266192846,2,2,1,0,780461.08288454,62,A
73,1,23/1/95,21,F,110,The paper cut Jon,Non-sensible,edin_semantics,emo_sem_emo_sem,1.25587494240608,2,2,2,1,780463.082258816,20,A
73,1,23/1/95,21,F,111,Anna polished the trophy,Sensible,edin_semantics,emo_sem_emo_sem,0.808951157028787,1,2,2,1,780464.634767036,104,A
73,1,23/1/95,21,F,112,The trolley pushed Matt,Non-sensible,edin_semantics,emo_sem_emo_sem,0.891071742400527,2,2,2,1,780466.269526695,26,A
73,1,23/1/95,21,F,113,Hugh dialed the hotline,Sensible,edin_semantics,emo_sem_emo_sem,1.03222462686244,2,2,2,1,780468.04543539,138,A
73,1,23/1/95,21,F,114,Fred stored the rice,Sensible,edin_semantics,emo_sem_emo_sem,0.961845266865566,1,1,1,1,780469.750813666,127,A
73,1,23/1/95,21,F,115,The thread measured Amy,Non-sensible,edin_semantics,emo_sem_emo_sem,0.949940795195289,1,1,1,1,780471.444445264,51,A
73,1,23/1/95,21,F,116,The shelf dusted Jake,Non-sensible,edin_semantics,emo_sem_emo_sem,0.620883082272485,1,1,1,1,780472.808691374,47,A
73,1,23/1/95,21,F,117,Amy lifted the crate,Sensible,edin_semantics,emo_sem_emo_sem,1.06810641998891,2,2,2,1,780474.619907132,144,A
73,1,23/1/95,21,F,118,Rose built the shed,Sensible,edin_semantics,emo_sem_emo_sem,0.715199994388968,1,1,1,1,780476.078319096,121,A
73,1,23/1/95,21,F,119,The scarf knitted Tom,Non-sensible,edin_semantics,emo_sem_emo_sem,0.996894471696578,2,2,2,1,780477.818936442,66,A
73,1,23/1/95,21,F,120,Ian labeled the box,Sensible,edin_semantics,emo_sem_emo_sem,0.844441671972163,1,2,2,1,780479.406663849,136,A
73,1,23/1/95,21,F,121,Ian pushed the button,Sensible,edin_semantics,emo_sem_emo_sem,1.22047294606455,2,1,1,1,780481.370773076,101,A
73,1,23/1/95,21,F,122,The room entered Ryan,Non-sensible,edin_semantics,emo_sem_emo_sem,1.02051354909781,1,2,2,1,780483.134957543,58,A
73,1,23/1/95,21,F,123,The jar labeled Liz,Non-sensible,edin_semantics,emo_sem_emo_sem,0.785083842580207,2,1,1,1,780484.663895435,61,A
73,1,23/1/95,21,F,124,The room searched Jen,Non-sensible,edin_semantics,emo_sem_emo_sem,0.891169882612303,2,2,2,1,780486.298689091,10,A
73,1,23/1/95,21,F,125,Tom whisked the cream,Sensible,edin_semantics,emo_sem_emo_sem,2.04393410112243,1,1,1,1,780489.086041062,137,A
73,1,23/1/95,21,F,126,The box lifted Kate,Non-sensible,edin_semantics,emo_sem_emo_sem,0.985356582445093,2,1,1,1,780490.814953104,69,A
73,1,23/1/95,21,F,127,Luke fixed the radio,Sensible,edin_semantics,emo_sem_emo_sem,0.797310316818766,2,2,2,1,780492.355672632,112,A
73,1,23/1/95,21,F,128,The floor cleaned Tim,Non-sensible,edin_semantics,emo_sem_emo_sem,0.738661919138394,1,1,1,1,780493.837558066,5,A
73,1,23/1/95,21,F,129,The gun carried Ryan,Non-sensible,edin_semantics,emo_sem_emo_sem,0.679369195830077,1,1,1,1,780495.26062897,75,A
73,1,23/1/95,21,F,130,The kettle got Lily,Non-sensible,edin_semantics,emo_sem_emo_sem,0.785569412168115,2,1,1,1,780496.789587067,13,A
73,1,23/1/95,21,F,131,The parcel mailed Rob,Non-sensible,edin_semantics,emo_sem_emo_sem,0.903030095039867,1,2,2,1,780498.436144078,14,A
73,1,23/1/95,21,F,132,Jack drank the beer,Sensible,edin_semantics,emo_sem_emo_sem,0.879415186936967,2,1,1,1,780500.059176944,135,A
73,1,23/1/95,21,F,133,The bike kicked Matt,Non-sensible,edin_semantics,emo_sem_emo_sem,0.962104087695479,2,1,1,1,780501.764516733,39,A
73,1,23/1/95,21,F,134,Jay sold the bed,Sensible,edin_semantics,emo_sem_emo_sem,1.29135070426855,2,1,1,1,780503.799200959,113,A
73,1,23/1/95,21,F,135,The photo took Beth,Non-sensible,edin_semantics,emo_sem_emo_sem,0.820849214331247,1,1,1,1,780505.363445273,53,A
73,1,23/1/95,21,F,136,The fruits mixed Jack,Non-sensible,edin_semantics,emo_sem_emo_sem,0.926671622903086,1,2,2,1,780507.033503015,8,A
73,1,23/1/95,21,F,137,Dan brushed the hair,Sensible,edin_semantics,emo_sem_emo_sem,1.20899150357582,2,1,1,1,780508.985847284,147,A
73,1,23/1/95,21,F,138,The number dialed Tom,Non-sensible,edin_semantics,emo_sem_emo_sem,0.914584020152688,1,1,1,1,780510.644144237,63,A
73,1,23/1/95,21,F,139,Phil solved the problem,Sensible,edin_semantics,emo_sem_emo_sem,1.24396052840166,2,1,1,1,780512.631799417,109,A
73,1,23/1/95,21,F,140,Luke read the poster,Sensible,edin_semantics,emo_sem_emo_sem,0.843815306550823,2,1,1,1,780514.219514636,79,A
73,1,23/1/95,21,F,141,The spoon licked Will,Non-sensible,edin_semantics,emo_sem_emo_sem,0.773231006693095,1,1,1,1,780515.736702001,21,A
73,1,23/1/95,21,F,142,The sheets counted Bill,Non-sensible,edin_semantics,emo_sem_emo_sem,0.937628688756377,2,2,2,1,780517.418575697,48,A
73,1,23/1/95,21,F,143,Lucy cut the ribbon,Sensible,edin_semantics,emo_sem_emo_sem,0.902513415785506,1,1,1,1,780519.065105126,95,A
73,1,23/1/95,21,F,144,The garden watered Jeff,Non-sensible,edin_semantics,emo_sem_emo_sem,0.973195214406587,2,2,2,1,780520.782204422,54,A
73,1,23/1/95,21,F,145,The picture painted Ryan,Non-sensible,edin_semantics,emo_sem_emo_sem,0.949438548181206,2,1,1,1,780522.475870337,35,A
73,1,23/1/95,21,F,146,The cake iced Mary,Non-sensible,edin_semantics,emo_sem_emo_sem,0.80870644794777,2,2,2,1,780524.028308319,44,A
73,1,23/1/95,21,F,147,Eve typed the message,Sensible,edin_semantics,emo_sem_emo_sem,0.938290974823758,1,2,2,1,780525.710138718,124,A
73,1,23/1/95,21,F,148,The dishes washed Mark,Non-sensible,edin_semantics,emo_sem_emo_sem,1.09100163308904,2,1,1,1,780527.544848473,57,A
73,1,23/1/95,21,F,149,Ella mashed the turnip,Sensible,edin_semantics,emo_sem_emo_sem,0.973193931509741,2,1,1,1,780529.26199748,103,A
73,1,23/1/95,21,F,150,The flour weighed Jen,Non-sensible,edin_semantics,emo_sem_emo_sem,0.926220049615949,1,2,2,1,780530.93206292,64,A
73,1,23/1/95,21,F,151,The trophy polished Anna,Non-sensible,edin_semantics,emo_sem_emo_sem,0.944465469336137,1,2,2,1,780541.164193063,104,B
73,1,23/1/95,21,F,152,Kate served the dish,Sensible,edin_semantics,emo_sem_emo_sem,0.867293588118628,1,2,2,1,780542.775479572,70,B
73,1,23/1/95,21,F,153,The sweets offered Tom,Non-sensible,edin_semantics,emo_sem_emo_sem,0.726601898437366,1,2,2,1,780544.245637251,84,B
73,1,23/1/95,21,F,154,The opera watched Adam,Non-sensible,edin_semantics,emo_sem_emo_sem,0.949629055568948,2,2,2,1,780545.939194442,108,B
73,1,23/1/95,21,F,155,The gift posted Jack,Non-sensible,edin_semantics,emo_sem_emo_sem,0.938148575369269,1,1,1,1,780547.621057875,111,B
73,1,23/1/95,21,F,156,Amy measured the thread,Sensible,edin_semantics,emo_sem_emo_sem,0.796929943258874,1,1,1,1,780549.161728333,51,B
73,1,23/1/95,21,F,157,Joe wore the jumper,Sensible,edin_semantics,emo_sem_emo_sem,0.891072704573162,2,1,1,1,780550.796528723,25,B
73,1,23/1/95,21,F,158,The desk wiped Lucy,Non-sensible,edin_semantics,emo_sem_emo_sem,0.809051542193629,1,1,1,1,780552.349027001,115,B
73,1,23/1/95,21,F,159,Matt pushed the trolley,Sensible,edin_semantics,emo_sem_emo_sem,0.72652652929537,2,2,2,1,780553.819154532,26,B
73,1,23/1/95,21,F,160,The box labeled Ian,Non-sensible,edin_semantics,emo_sem_emo_sem,0.808975210995413,2,2,2,1,780555.371587703,136,B
73,1,23/1/95,21,F,161,Luke swallowed the pill,Sensible,edin_semantics,emo_sem_emo_sem,0.820270315394737,1,2,2,1,780556.935825603,22,B
73,1,23/1/95,21,F,162,The church described Erin,Non-sensible,edin_semantics,emo_sem_emo_sem,0.644178232876584,1,1,1,1,780558.323632419,117,B
73,1,23/1/95,21,F,163,The trousers ironed Eve,Non-sensible,edin_semantics,emo_sem_emo_sem,0.761699531809427,2,2,2,1,780559.829073749,130,B
73,1,23/1/95,21,F,164,The report wrote Alex,Non-sensible,edin_semantics,emo_sem_emo_sem,0.85622138378676,2,1,1,1,780561.428579584,149,B
73,1,23/1/95,21,F,165,The nuts mixed Liam,Non-sensible,edin_semantics,emo_sem_emo_sem,0.773404836771078,1,1,1,1,780562.945755725,83,B
73,1,23/1/95,21,F,166,The house dusted Alex,Non-sensible,edin_semantics,emo_sem_emo_sem,1.38540270202793,1,2,2,1,780565.074533642,122,B
73,1,23/1/95,21,F,167,The lemon squeezed Jay,Non-sensible,edin_semantics,emo_sem_emo_sem,0.785202508792281,1,2,2,1,780566.603458384,76,B
73,1,23/1/95,21,F,168,Lily got the kettle,Sensible,edin_semantics,emo_sem_emo_sem,0.643088427488692,2,1,1,1,780567.99125141,13,B
73,1,23/1/95,21,F,169,The plants watered Luke,Non-sensible,edin_semantics,emo_sem_emo_sem,0.820390905952081,2,1,1,1,780569.555509194,129,B
73,1,23/1/95,21,F,170,Phil passed the towels,Sensible,edin_semantics,emo_sem_emo_sem,0.679414417245425,2,1,1,1,780570.978590039,43,B
73,1,23/1/95,21,F,171,The shoes counted Lucy,Non-sensible,edin_semantics,emo_sem_emo_sem,0.761855401680805,1,1,1,1,780572.483990317,123,B
73,1,23/1/95,21,F,172,Jon jumped the fence,Sensible,edin_semantics,emo_sem_emo_sem,0.632635853602551,2,1,1,1,780573.860042758,17,B
73,1,23/1/95,21,F,173,Ella watched the movie,Sensible,edin_semantics,emo_sem_emo_sem,0.761782598216087,1,1,1,1,780575.365464524,33,B
73,1,23/1/95,21,F,174,The plate licked Jane,Non-sensible,edin_semantics,emo_sem_emo_sem,0.797138411086053,1,2,2,1,780576.906176034,96,B
73,1,23/1/95,21,F,175,Luke climbed the hill,Sensible,edin_semantics,emo_sem_emo_sem,0.903262295993045,2,2,2,1,780578.552724385,68,B
73,1,23/1/95,21,F,176,The hair brushed Dan,Non-sensible,edin_semantics,emo_sem_emo_sem,0.902935161953792,2,1,1,1,780580.199290376,147,B
73,1,23/1/95,21,F,177,Rob mailed the parcel,Sensible,edin_semantics,emo_sem_emo_sem,0.761957711190917,1,2,2,1,780581.704700595,14,B
73,1,23/1/95,21,F,178,Leah sucked the lolly,Sensible,edin_semantics,emo_sem_emo_sem,0.961786254425533,2,2,2,1,780583.410075343,12,B
73,1,23/1/95,21,F,179,The hair trimmed Bill,Non-sensible,edin_semantics,emo_sem_emo_sem,0.738395401160233,1,1,1,1,780584.891964947,107,B
73,1,23/1/95,21,F,180,Jane punched the wall,Sensible,edin_semantics,emo_sem_emo_sem,0.749777420656756,1,2,2,1,780586.385607963,50,B
73,1,23/1/95,21,F,181,Sean read the book,Sensible,edin_semantics,emo_sem_emo_sem,0.973582643666305,2,2,2,1,780588.102801229,4,B
73,1,23/1/95,21,F,182,Josh squeezed the ball,Sensible,edin_semantics,emo_sem_emo_sem,0.691082518547773,2,1,1,1,780589.537589304,1,B
73,1,23/1/95,21,F,183,The donut iced Joe,Non-sensible,edin_semantics,emo_sem_emo_sem,0.655981036485173,2,1,1,1,780590.937145364,119,B
73,1,23/1/95,21,F,184,The stairs climbed Ben,Non-sensible,edin_semantics,emo_sem_emo_sem,0.985344074433669,2,1,1,1,780592.666042332,143,B
73,1,23/1/95,21,F,185,The blanket stroked Ryan,Non-sensible,edin_semantics,emo_sem_emo_sem,0.90310482273344,1,2,2,1,780594.312594532,116,B
73,1,23/1/95,21,F,186,Matt offered the money,Sensible,edin_semantics,emo_sem_emo_sem,0.679173556738533,1,1,1,1,780595.735712581,9,B
73,1,23/1/95,21,F,187,Ian cancelled the plans,Sensible,edin_semantics,emo_sem_emo_sem,0.725138454698026,2,1,1,1,780597.205851338,7,B
73,1,23/1/95,21,F,188,The ticket took Tim,Non-sensible,edin_semantics,emo_sem_emo_sem,1.12537636456545,2,2,2,1,780599.075850516,128,B
73,1,23/1/95,21,F,189,The curtains measured Rob,Non-sensible,edin_semantics,emo_sem_emo_sem,0.807552177808248,2,2,2,1,780600.628321212,126,B
73,1,23/1/95,21,F,190,The steak ate Mike,Non-sensible,edin_semantics,emo_sem_emo_sem,0.714004672248848,1,2,2,1,780602.086695651,142,B
73,1,23/1/95,21,F,191,The crate lifted Amy,Non-sensible,edin_semantics,emo_sem_emo_sem,0.737541645416059,2,2,2,1,780603.568628231,144,B
73,1,23/1/95,21,F,192,Eve taught the lesson,Sensible,edin_semantics,emo_sem_emo_sem,0.914087546174414,2,1,1,1,780605.226901771,15,B
73,1,23/1/95,21,F,193,Matt kicked the bike,Sensible,edin_semantics,emo_sem_emo_sem,0.82042426080443,1,1,1,1,780606.791118824,39,B
73,1,23/1/95,21,F,194,Amy hugged the tree,Sensible,edin_semantics,emo_sem_emo_sem,1.31500634376425,1,1,1,1,780608.849297367,11,B
73,1,23/1/95,21,F,195,The radio got Ben,Non-sensible,edin_semantics,emo_sem_emo_sem,1.96138727932703,2,2,2,1,780611.554356527,88,B
73,1,23/1/95,21,F,196,The door kicked Max,Non-sensible,edin_semantics,emo_sem_emo_sem,1.64317887055222,1,2,2,1,780613.941865716,114,B
73,1,23/1/95,21,F,197,The salt passed Leo,Non-sensible,edin_semantics,emo_sem_emo_sem,2.01903888012748,2,2,2,1,780616.705737161,118,B
73,1,23/1/95,21,F,198,Jen fixed the laptop,Sensible,edin_semantics,emo_sem_emo_sem,2.04211337561719,2,1,1,1,780619.493115432,37,B
73,1,23/1/95,21,F,199,Tim pulled the handle,Sensible,edin_semantics,emo_sem_emo_sem,0.949225911055692,1,1,1,1,780621.186691867,73,B
73,1,23/1/95,21,F,200,The rules taught Josh,Non-sensible,edin_semantics,emo_sem_emo_sem,1.81962470675353,2,2,1,0,780623.750631497,90,B
73,1,23/1/95,21,F,201,The cream whisked Tom,Non-sensible,edin_semantics,emo_sem_emo_sem,0.914234435767867,2,1,1,1,780625.408931657,137,B
73,1,23/1/95,21,F,202,Beth took the photo,Sensible,edin_semantics,emo_sem_emo_sem,0.655297903693281,2,1,1,1,780626.808491566,53,B
73,1,23/1/95,21,F,203,The rope pulled Andy,Non-sensible,edin_semantics,emo_sem_emo_sem,1.43196798698045,1,2,2,1,780628.984305905,148,B
73,1,23/1/95,21,F,204,The bath cleaned Jack,Non-sensible,edin_semantics,emo_sem_emo_sem,1.69020374678075,2,2,1,0,780631.418876853,80,B
73,1,23/1/95,21,F,205,Kate lifted the box,Sensible,edin_semantics,emo_sem_emo_sem,0.772816957673058,1,1,1,1,780632.936069029,69,B
73,1,23/1/95,21,F,206,Matt drank the juice,Sensible,edin_semantics,emo_sem_emo_sem,1.40839348966256,2,2,2,1,780635.088333246,60,B
73,1,23/1/95,21,F,207,Joe solved the puzzle,Sensible,edin_semantics,emo_sem_emo_sem,0.878353604930453,2,2,2,1,780636.711341416,34,B
73,1,23/1/95,21,F,208,Will licked the spoon,Sensible,edin_semantics,emo_sem_emo_sem,0.866436625132337,1,1,1,1,780638.322613493,21,B
73,1,23/1/95,21,F,209,Jack mixed the fruits,Sensible,edin_semantics,emo_sem_emo_sem,0.948881778982468,1,2,2,1,780640.016211737,8,B
73,1,23/1/95,21,F,210,Tim cleaned the floor,Sensible,edin_semantics,emo_sem_emo_sem,0.678701778175309,1,1,1,1,780641.439382704,5,B
73,1,23/1/95,21,F,211,Liz sliced the tomato,Sensible,edin_semantics,emo_sem_emo_sem,1.18419634713791,2,1,1,1,780643.368139967,3,B
73,1,23/1/95,21,F,212,The perfume sniffed Tim,Non-sensible,edin_semantics,emo_sem_emo_sem,0.855143765802495,2,1,1,1,780644.967638746,93,B
73,1,23/1/95,21,F,213,The monitor punched Erin,Non-sensible,edin_semantics,emo_sem_emo_sem,0.961503059021197,1,1,1,1,780646.673033059,125,B
73,1,23/1/95,21,F,214,Mike paid the bill,Sensible,edin_semantics,emo_sem_emo_sem,2.85496929427609,2,1,1,1,780650.271884626,59,B
73,1,23/1/95,21,F,215,The invite mailed Ian,Non-sensible,edin_semantics,emo_sem_emo_sem,1.27875604399014,1,1,1,1,780652.294815759,89,B
73,1,23/1/95,21,F,216,Leo stored the wine,Sensible,edin_semantics,emo_sem_emo_sem,1.20778110751417,2,2,2,1,780654.247136294,52,B
73,1,23/1/95,21,F,217,The bed sold Jay,Non-sensible,edin_semantics,emo_sem_emo_sem,1.46749602630734,2,1,1,1,780656.458215362,113,B
73,1,23/1/95,21,F,218,Ryan carried the gun,Sensible,edin_semantics,emo_sem_emo_sem,2.92545962333679,1,1,1,1,780660.127710241,75,B
73,1,23/1/95,21,F,219,The bowl dented Ian,Non-sensible,edin_semantics,emo_sem_emo_sem,0.843579256907105,2,2,2,1,780661.715435082,146,B
73,1,23/1/95,21,F,220,The candy sucked Sam,Non-sensible,edin_semantics,emo_sem_emo_sem,0.995921087567694,2,1,1,1,780663.4561108,87,B
73,1,23/1/95,21,F,221,Tom knitted the scarf,Sensible,edin_semantics,emo_sem_emo_sem,1.51383199670818,2,2,2,1,780665.714230138,66,B
73,1,23/1/95,21,F,222,The office entered Joe,Non-sensible,edin_semantics,emo_sem_emo_sem,0.937609445536509,2,1,1,1,780667.396064706,133,B
73,1,23/1/95,21,F,223,The onion sliced Liam,Non-sensible,edin_semantics,emo_sem_emo_sem,1.09081529499963,1,2,2,1,780669.230807816,78,B
73,1,23/1/95,21,F,224,Erin posted the card,Sensible,edin_semantics,emo_sem_emo_sem,0.808746537892148,1,2,2,1,780670.783257986,36,B
73,1,23/1/95,21,F,225,The hedge jumped Sara,Non-sensible,edin_semantics,emo_sem_emo_sem,0.67915014422033,1,2,2,1,780672.206360961,92,B
73,1,23/1/95,21,F,226,The radio fixed Luke,Non-sensible,edin_semantics,emo_sem_emo_sem,1.09115044702776,2,2,2,1,780674.041101826,112,B
73,1,23/1/95,21,F,227,John described the pen,Sensible,edin_semantics,emo_sem_emo_sem,0.961792348185554,1,2,2,1,780675.74644803,42,B
73,1,23/1/95,21,F,228,Liz scrubbed the bowl,Sensible,edin_semantics,emo_sem_emo_sem,1.07954456529114,2,2,2,1,780677.569427464,56,B
73,1,23/1/95,21,F,229,The ice crushed Josh,Non-sensible,edin_semantics,emo_sem_emo_sem,0.902865886571817,1,1,1,1,780679.215973249,81,B
73,1,23/1/95,21,F,230,The fat chewed Adam,Non-sensible,edin_semantics,emo_sem_emo_sem,0.961654438637197,1,2,2,1,780680.921336131,106,B
73,1,23/1/95,21,F,231,The dress wore Kate,Non-sensible,edin_semantics,emo_sem_emo_sem,1.35017806349788,2,2,2,1,780683.014814361,100,B
73,1,23/1/95,21,F,232,Ewan wrote the story,Sensible,edin_semantics,emo_sem_emo_sem,1.25530630652793,2,2,2,1,780685.014175808,74,B
73,1,23/1/95,21,F,233,Ryan entered the room,Sensible,edin_semantics,emo_sem_emo_sem,1.11441769497469,2,2,2,1,780686.872429272,58,B
73,1,23/1/95,21,F,234,Sam tidied the room,Sensible,edin_semantics,emo_sem_emo_sem,1.17331625393126,2,2,2,1,780688.789470646,2,B
73,1,23/1/95,21,F,235,The pillow hugged Kate,Non-sensible,edin_semantics,emo_sem_emo_sem,0.772722666035406,2,2,2,1,780690.306686556,86,B
73,1,23/1/95,21,F,236,Kate built the house,Sensible,edin_semantics,emo_sem_emo_sem,0.749077289598063,1,2,2,1,780691.80032444,46,B
73,1,23/1/95,21,F,237,The dessert served Fred,Non-sensible,edin_semantics,emo_sem_emo_sem,0.772366667282768,2,1,1,1,780693.317507316,145,B
73,1,23/1/95,21,F,238,Phil chopped the herbs,Sensible,edin_semantics,emo_sem_emo_sem,0.949011028860696,2,1,1,1,780695.011106201,27,B
73,1,23/1/95,21,F,239,Jen searched the room,Sensible,edin_semantics,emo_sem_emo_sem,1.07839093671646,2,2,2,1,780696.83409269,10,B
73,1,23/1/95,21,F,240,Lily dented the lorry,Sensible,edin_semantics,emo_sem_emo_sem,0.772976676002145,1,1,1,1,780698.351244456,71,B
73,1,23/1/95,21,F,241,Hugh pulled the lever,Sensible,edin_semantics,emo_sem_emo_sem,0.714012369513512,1,1,1,1,780699.809627555,45,B
73,1,23/1/95,21,F,242,The pan washed Beth,Non-sensible,edin_semantics,emo_sem_emo_sem,0.749320074333809,1,2,2,1,780701.30331483,132,B
73,1,23/1/95,21,F,243,The problem solved Phil,Non-sensible,edin_semantics,emo_sem_emo_sem,1.79665027570445,2,1,1,1,780703.843698244,109,B
73,1,23/1/95,21,F,244,Lara filed the papers,Sensible,edin_semantics,emo_sem_emo_sem,0.844089201185852,1,2,2,1,780705.431442648,24,B
73,1,23/1/95,21,F,245,The garage tidied Erin,Non-sensible,edin_semantics,emo_sem_emo_sem,0.86755625740625,1,1,1,1,780707.042698689,77,B
73,1,23/1/95,21,F,246,The shed built Rose,Non-sensible,edin_semantics,emo_sem_emo_sem,1.24397592293099,2,1,1,1,780709.030371188,121,B
73,1,23/1/95,21,F,247,Carl brushed the teeth,Sensible,edin_semantics,emo_sem_emo_sem,1.16178285481874,2,2,2,1,780710.935651773,72,B
73,1,23/1/95,21,F,248,The kettle carried John,Non-sensible,edin_semantics,emo_sem_emo_sem,0.773325298214331,1,1,1,1,780712.452791031,105,B
73,1,23/1/95,21,F,249,Bill counted the sheets,Sensible,edin_semantics,emo_sem_emo_sem,0.961352641577832,2,2,2,1,780714.158180853,48,B
73,1,23/1/95,21,F,250,Tom dialed the number,Sensible,edin_semantics,emo_sem_emo_sem,0.87902390898671,2,1,1,1,780715.781211794,63,B
73,1,23/1/95,21,F,251,The report filed Ian,Non-sensible,edin_semantics,emo_sem_emo_sem,1.04394692985807,2,1,1,1,780717.568909181,99,B
73,1,23/1/95,21,F,252,Max lent the bucket,Sensible,edin_semantics,emo_sem_emo_sem,1.12642800423782,1,1,1,1,780719.438931131,19,B
73,1,23/1/95,21,F,253,The message typed Eve,Non-sensible,edin_semantics,emo_sem_emo_sem,0.843534676823765,2,2,2,1,780721.026666555,124,B
73,1,23/1/95,21,F,254,Mark washed the dishes,Sensible,edin_semantics,emo_sem_emo_sem,1.26675663923379,1,1,1,1,780723.037794565,57,B
73,1,23/1/95,21,F,255,The carrots chopped Fred,Non-sensible,edin_semantics,emo_sem_emo_sem,0.925416967598721,2,2,2,1,780724.707918055,102,B
73,1,23/1/95,21,F,256,The turnip mashed Ella,Non-sensible,edin_semantics,emo_sem_emo_sem,0.843349300906993,2,1,1,1,780726.295652517,103,B
73,1,23/1/95,21,F,257,The sugar weighed Liz,Non-sensible,edin_semantics,emo_sem_emo_sem,1.37284877290949,1,1,1,1,780728.412649119,139,B
73,1,23/1/95,21,F,258,Liz labeled the jar,Sensible,edin_semantics,emo_sem_emo_sem,1.06751533364877,1,1,1,1,780730.22387065,61,B
73,1,23/1/95,21,F,259,Beth wiped the table,Sensible,edin_semantics,emo_sem_emo_sem,0.879205436329357,2,2,2,1,780731.846867916,40,B
73,1,23/1/95,21,F,260,Erin crushed the garlic,Sensible,edin_semantics,emo_sem_emo_sem,1.3971147419652,2,2,2,1,780733.987430356,6,B
73,1,23/1/95,21,F,261,The carrots grated Tom,Non-sensible,edin_semantics,emo_sem_emo_sem,0.667544262483716,1,2,1,0,780735.398720906,140,B
73,1,23/1/95,21,F,262,The rope pulled Emma,Non-sensible,edin_semantics,emo_sem_emo_sem,0.773671996197663,1,2,2,1,780736.915896726,120,B
73,1,23/1/95,21,F,263,Ben chewed the toffee,Sensible,edin_semantics,emo_sem_emo_sem,0.938206625520252,1,1,1,1,780738.597755347,31,B
73,1,23/1/95,21,F,264,The button pushed Ian,Non-sensible,edin_semantics,emo_sem_emo_sem,1.73767923412379,2,1,1,1,780741.079355341,101,B
73,1,23/1/95,21,F,265,Carl sold the sofa,Sensible,edin_semantics,emo_sem_emo_sem,1.58449904236477,1,2,2,1,780743.408024983,38,B
73,1,23/1/95,21,F,266,The debt paid Zoe,Non-sensible,edin_semantics,emo_sem_emo_sem,1.46688345179427,1,2,2,1,780745.619118162,134,B
73,1,23/1/95,21,F,267,The socks knitted Ryan,Non-sensible,edin_semantics,emo_sem_emo_sem,0.984462416148745,2,1,1,1,780747.3480286,141,B
73,1,23/1/95,21,F,268,Dan carried the folder,Sensible,edin_semantics,emo_sem_emo_sem,1.07895444112364,2,2,2,1,780749.170994564,30,B
73,1,23/1/95,21,F,269,Mary visited the museum,Sensible,edin_semantics,emo_sem_emo_sem,0.961623970302753,1,2,2,1,780750.876354559,16,B
73,1,23/1/95,21,F,270,The beer drank Jack,Non-sensible,edin_semantics,emo_sem_emo_sem,0.808879957301542,2,1,1,1,780752.428772337,135,B
73,1,23/1/95,21,F,271,The ribbon cut Lucy,Non-sensible,edin_semantics,emo_sem_emo_sem,0.832380368374288,1,1,1,1,780754.004791872,95,B
73,1,23/1/95,21,F,272,Dan whisked the eggs,Sensible,edin_semantics,emo_sem_emo_sem,0.996858551050536,2,2,2,1,780755.745429745,62,B
73,1,23/1/95,21,F,273,Max kissed the mirror,Sensible,edin_semantics,emo_sem_emo_sem,1.12516821746249,2,1,1,1,780757.615452337,23,B
73,1,23/1/95,21,F,274,Josh ironed the shirt,Sensible,edin_semantics,emo_sem_emo_sem,0.701363828149624,2,1,1,1,780759.06206791,55,B
73,1,23/1/95,21,F,275,Jon polished the coins,Sensible,edin_semantics,emo_sem_emo_sem,0.91342269431334,1,1,1,1,780760.720384427,29,B
73,1,23/1/95,21,F,276,The rose kissed Hugh,Non-sensible,edin_semantics,emo_sem_emo_sem,0.948729757685214,1,2,2,1,780762.413964069,98,B
73,1,23/1/95,21,F,277,Rob stroked the fur,Sensible,edin_semantics,emo_sem_emo_sem,0.854522852576338,2,1,1,1,780764.013485299,41,B
73,1,23/1/95,21,F,278,Jon cut the paper,Sensible,edin_semantics,emo_sem_emo_sem,0.631263814982958,1,2,2,1,780765.389527477,20,B
73,1,23/1/95,21,F,279,The party cancelled Phil,Non-sensible,edin_semantics,emo_sem_emo_sem,1.01987724134233,2,2,2,1,780767.153724774,82,B
73,1,23/1/95,21,F,280,The internet searched Max,Non-sensible,edin_semantics,emo_sem_emo_sem,0.819487759494223,1,1,1,1,780768.717913603,85,B
73,1,23/1/95,21,F,281,Andy grated the cheese,Sensible,edin_semantics,emo_sem_emo_sem,0.796318330918439,2,1,1,1,780770.258609719,65,B
73,1,23/1/95,21,F,282,Will mashed the potatoes,Sensible,edin_semantics,emo_sem_emo_sem,0.808144547045231,1,2,2,1,780771.811087791,28,B
73,1,23/1/95,21,F,283,Phil typed the letter,Sensible,edin_semantics,emo_sem_emo_sem,0.960900426725857,2,1,1,1,780773.516466388,49,B
73,1,23/1/95,21,F,284,Mary iced the cake,Sensible,edin_semantics,emo_sem_emo_sem,0.913575356942602,2,2,2,1,780775.174775208,44,B
73,1,23/1/95,21,F,285,Ryan painted the picture,Sensible,edin_semantics,emo_sem_emo_sem,0.86691513878759,1,1,1,1,780776.786066207,35,B
73,1,23/1/95,21,F,286,The poster read Luke,Non-sensible,edin_semantics,emo_sem_emo_sem,0.761261108098552,1,1,1,1,780778.291449486,79,B
73,1,23/1/95,21,F,287,Tim ate the ham,Sensible,edin_semantics,emo_sem_emo_sem,0.596664259093814,2,1,1,1,780779.632188129,67,B
73,1,23/1/95,21,F,288,Phil sniffed the milk,Sensible,edin_semantics,emo_sem_emo_sem,0.890389892505482,1,2,2,1,780781.2670331,18,B
73,1,23/1/95,21,F,289,The rice stored Fred,Non-sensible,edin_semantics,emo_sem_emo_sem,0.737511177081615,2,1,1,1,780782.74890346,127,B
73,1,23/1/95,21,F,290,The portrait painted Jay,Non-sensible,edin_semantics,emo_sem_emo_sem,0.961124609806575,1,2,2,1,780784.454290395,110,B
73,1,23/1/95,21,F,291,The wallet carried Leo,Non-sensible,edin_semantics,emo_sem_emo_sem,1.57261445524637,2,2,2,1,780786.771233885,150,B
73,1,23/1/95,21,F,292,The hotline dialed Hugh,Non-sensible,edin_semantics,emo_sem_emo_sem,0.960921915015206,1,2,2,1,780788.476551545,138,B
73,1,23/1/95,21,F,293,Jen weighed the flour,Sensible,edin_semantics,emo_sem_emo_sem,0.584678966086358,1,2,2,1,780789.805563075,64,B
73,1,23/1/95,21,F,294,Jon trimmed the bushes,Sensible,edin_semantics,emo_sem_emo_sem,1.92552184290253,2,2,1,0,780792.475324151,32,B
73,1,23/1/95,21,F,295,Jake dusted the shelf,Sensible,edin_semantics,emo_sem_emo_sem,0.713401077780873,1,1,1,1,780793.933710457,47,B
73,1,23/1/95,21,F,296,The pot scrubbed Josh,Non-sensible,edin_semantics,emo_sem_emo_sem,0.666400896967389,1,1,1,1,780795.345034362,131,B
73,1,23/1/95,21,F,297,Jeff watered the garden,Sensible,edin_semantics,emo_sem_emo_sem,0.843091121641919,1,2,2,1,780796.93279384,54,B
73,1,23/1/95,21,F,298,The gum swallowed Owen,Non-sensible,edin_semantics,emo_sem_emo_sem,0.819946388481185,2,1,1,1,780798.49704072,97,B
73,1,23/1/95,21,F,299,The hospital visited Tom,Non-sensible,edin_semantics,emo_sem_emo_sem,0.996548094553873,1,1,1,1,780800.237668009,91,B
73,1,23/1/95,21,F,300,The car lent Fred,Non-sensible,edin_semantics,emo_sem_emo_sem,1.11434168450069,2,2,2,1,780802.095983692,94,B
