subject_column,AssignedList_column,subject_dob_column,subject_age_column,subject_gender_column,trialnum_column,Stim_column,Type_column,Experiment_column,OrderGroup_column,ReactionTime_column,StimSide_column,StimPosition_column,Response_column,Valid_column,TrialEndSecs_column,PairID_column,List_column
74,2,7/7/97,18,M,1,Ryan knitted the socks,Sensible,edin_semantics,sem_emo_sem_emo,3.52005844796076,1,1,1,1,784971.91075142,141,A
74,2,7/7/97,18,M,2,Mike ate the steak,Sensible,edin_semantics,sem_emo_sem_emo,0.820935487980023,2,2,2,1,784973.474967511,142,A
74,2,7/7/97,18,M,3,Joe iced the donut,Sensible,edin_semantics,sem_emo_sem_emo,1.173762054299,2,1,1,1,784975.392031015,119,A
74,2,7/7/97,18,M,4,The room searched Jen,Non-sensible,edin_semantics,sem_emo_sem_emo,0.738757493556477,1,2,2,1,784976.873916769,10,A
74,2,7/7/97,18,M,5,Alex dusted the house,Sensible,edin_semantics,sem_emo_sem_emo,1.35019153379835,1,2,2,1,784978.967374153,122,A
74,2,7/7/97,18,M,6,Ben climbed the stairs,Sensible,edin_semantics,sem_emo_sem_emo,1.05644409148954,2,1,1,1,784980.766822387,143,A
74,2,7/7/97,18,M,7,The mirror kissed Max,Non-sensible,edin_semantics,sem_emo_sem_emo,0.832868182915263,1,1,1,1,784982.342814982,23,A
74,2,7/7/97,18,M,8,Tom visited the hospital,Sensible,edin_semantics,sem_emo_sem_emo,0.915311091579497,2,1,1,1,784984.001166457,91,A
74,2,7/7/97,18,M,9,Fred stored the rice,Sensible,edin_semantics,sem_emo_sem_emo,1.38580199796706,1,1,1,1,784986.129886003,127,A
74,2,7/7/97,18,M,10,The picture painted Ryan,Non-sensible,edin_semantics,sem_emo_sem_emo,0.89172344468534,1,1,1,1,784987.764684149,35,A
74,2,7/7/97,18,M,11,Tom whisked the cream,Sensible,edin_semantics,sem_emo_sem_emo,1.09161067963578,2,1,1,1,784989.59954817,137,A
74,2,7/7/97,18,M,12,The card posted Erin,Non-sensible,edin_semantics,sem_emo_sem_emo,0.892137173097581,1,2,2,1,784991.234219952,36,A
74,2,7/7/97,18,M,13,Ben got the radio,Sensible,edin_semantics,sem_emo_sem_emo,1.39724591630511,1,2,2,1,784993.374733642,88,A
74,2,7/7/97,18,M,14,The room entered Ryan,Non-sensible,edin_semantics,sem_emo_sem_emo,1.07964719552547,1,2,2,1,784995.197729112,58,A
74,2,7/7/97,18,M,15,Erin punched the monitor,Sensible,edin_semantics,sem_emo_sem_emo,1.32687521562912,2,1,1,1,784997.267645353,125,A
74,2,7/7/97,18,M,16,The letter typed Phil,Non-sensible,edin_semantics,sem_emo_sem_emo,0.844612936256453,2,1,1,1,784998.855477635,49,A
74,2,7/7/97,18,M,17,The coins polished Jon,Non-sensible,edin_semantics,sem_emo_sem_emo,0.880211533745751,1,1,1,1,785000.478418775,29,A
74,2,7/7/97,18,M,18,Bill trimmed the hair,Sensible,edin_semantics,sem_emo_sem_emo,0.962624615523964,2,1,1,1,785002.183775242,107,A
74,2,7/7/97,18,M,19,The table wiped Beth,Non-sensible,edin_semantics,sem_emo_sem_emo,0.903227658360265,2,2,2,1,785003.830332253,40,A
74,2,7/7/97,18,M,20,Ian labeled the box,Sensible,edin_semantics,sem_emo_sem_emo,1.62137634900864,2,2,2,1,785006.194343917,136,A
74,2,7/7/97,18,M,21,Erin described the church,Sensible,edin_semantics,sem_emo_sem_emo,0.844449369236827,1,1,1,1,785007.782078379,117,A
74,2,7/7/97,18,M,22,The dishes washed Mark,Non-sensible,edin_semantics,sem_emo_sem_emo,0.656692713382654,1,1,1,1,785009.181685112,57,A
74,2,7/7/97,18,M,23,The house built Kate,Non-sensible,edin_semantics,sem_emo_sem_emo,0.809606387163512,1,2,2,1,785010.734109625,46,A
74,2,7/7/97,18,M,24,The sheets counted Bill,Non-sensible,edin_semantics,sem_emo_sem_emo,0.856688993051648,1,2,2,1,785012.333613535,48,A
74,2,7/7/97,18,M,25,Tom grated the carrots,Sensible,edin_semantics,sem_emo_sem_emo,2.13842805032618,2,2,2,1,785015.215097364,140,A
74,2,7/7/97,18,M,26,Sara jumped the hedge,Sensible,edin_semantics,sem_emo_sem_emo,1.06795022950973,2,2,2,1,785017.026281051,92,A
74,2,7/7/97,18,M,27,Luke read the poster,Sensible,edin_semantics,sem_emo_sem_emo,0.691700545372441,2,1,1,1,785018.46115572,79,A
74,2,7/7/97,18,M,28,Jack cleaned the bath,Sensible,edin_semantics,sem_emo_sem_emo,0.691633514943533,1,2,2,1,785019.895978753,80,A
74,2,7/7/97,18,M,29,Eve ironed the trousers,Sensible,edin_semantics,sem_emo_sem_emo,0.738973979372531,1,2,2,1,785021.377885996,130,A
74,2,7/7/97,18,M,30,Ian dented the bowl,Sensible,edin_semantics,sem_emo_sem_emo,0.997580491006374,1,2,2,1,785023.118543432,146,A
74,2,7/7/97,18,M,31,Dan brushed the hair,Sensible,edin_semantics,sem_emo_sem_emo,0.832533672335558,2,1,1,1,785024.694564892,147,A
74,2,7/7/97,18,M,32,The flour weighed Jen,Non-sensible,edin_semantics,sem_emo_sem_emo,0.867929895757698,1,2,2,1,785026.305798483,64,A
74,2,7/7/97,18,M,33,Liam mixed the nuts,Sensible,edin_semantics,sem_emo_sem_emo,0.82088256906718,1,1,1,1,785027.87004857,83,A
74,2,7/7/97,18,M,34,The jumper wore Joe,Non-sensible,edin_semantics,sem_emo_sem_emo,1.585808540578,1,1,1,1,785030.198726871,25,A
74,2,7/7/97,18,M,35,Fred chopped the carrots,Sensible,edin_semantics,sem_emo_sem_emo,0.773815357824788,1,2,2,1,785031.715915199,102,A
74,2,7/7/97,18,M,36,The bike kicked Matt,Non-sensible,edin_semantics,sem_emo_sem_emo,0.550502439378761,1,1,1,1,785033.009654303,39,A
74,2,7/7/97,18,M,37,Ian pushed the button,Sensible,edin_semantics,sem_emo_sem_emo,0.774337168666534,1,1,1,1,785034.526776242,101,A
74,2,7/7/97,18,M,38,The lolly sucked Leah,Non-sensible,edin_semantics,sem_emo_sem_emo,0.880128788179718,1,2,2,1,785036.14989057,12,A
74,2,7/7/97,18,M,39,Sam sucked the candy,Sensible,edin_semantics,sem_emo_sem_emo,0.680215574917383,2,1,1,1,785037.572925874,87,A
74,2,7/7/97,18,M,40,The papers filed Lara,Non-sensible,edin_semantics,sem_emo_sem_emo,0.680013842298649,1,2,2,1,785038.99603815,24,A
74,2,7/7/97,18,M,41,The book read Sean,Non-sensible,edin_semantics,sem_emo_sem_emo,2.06773021572735,1,2,2,1,785041.806942811,4,A
74,2,7/7/97,18,M,42,Tim sniffed the perfume,Sensible,edin_semantics,sem_emo_sem_emo,0.703625543159433,2,1,1,1,785043.253542028,93,A
74,2,7/7/97,18,M,43,Erin tidied the garage,Sensible,edin_semantics,sem_emo_sem_emo,1.49151375819929,2,1,1,1,785045.488170577,77,A
74,2,7/7/97,18,M,44,Emma pulled the rope,Sensible,edin_semantics,sem_emo_sem_emo,1.52685193147045,2,2,2,1,785047.75801767,120,A
74,2,7/7/97,18,M,45,The garden watered Jeff,Non-sensible,edin_semantics,sem_emo_sem_emo,1.10338076995686,2,2,2,1,785049.604545624,54,A
74,2,7/7/97,18,M,46,The kettle got Lily,Non-sensible,edin_semantics,sem_emo_sem_emo,0.550588712911122,1,1,1,1,785050.898262277,13,A
74,2,7/7/97,18,M,47,Josh taught the rules,Sensible,edin_semantics,sem_emo_sem_emo,1.04462044104002,1,2,2,1,785052.685917329,90,A
74,2,7/7/97,18,M,48,Jack drank the beer,Sensible,edin_semantics,sem_emo_sem_emo,1.78566210006829,2,1,1,1,785055.214580364,135,A
74,2,7/7/97,18,M,49,Kate hugged the pillow,Sensible,edin_semantics,sem_emo_sem_emo,0.844416014384478,1,2,2,1,785056.802309053,86,A
74,2,7/7/97,18,M,50,The ham ate Tim,Non-sensible,edin_semantics,sem_emo_sem_emo,0.974133640062064,2,1,1,1,785058.51941316,67,A
74,2,7/7/97,18,M,51,Jane licked the plate,Sensible,edin_semantics,sem_emo_sem_emo,0.726972650387324,1,2,2,1,785059.989613174,96,A
74,2,7/7/97,18,M,52,Fred lent the car,Sensible,edin_semantics,sem_emo_sem_emo,0.809215429937467,2,2,2,1,785061.542024536,94,A
74,2,7/7/97,18,M,53,The potatoes mashed Will,Non-sensible,edin_semantics,sem_emo_sem_emo,0.833022449049167,2,2,2,1,785063.118054976,28,A
74,2,7/7/97,18,M,54,Josh scrubbed the pot,Sensible,edin_semantics,sem_emo_sem_emo,0.903392187552527,2,1,1,1,785064.764560351,131,A
74,2,7/7/97,18,M,55,Jay sold the bed,Sensible,edin_semantics,sem_emo_sem_emo,0.797456244239584,1,1,1,1,785066.305292387,113,A
74,2,7/7/97,18,M,56,The laptop fixed Jen,Non-sensible,edin_semantics,sem_emo_sem_emo,0.868151513044722,1,1,1,1,785067.916537524,37,A
74,2,7/7/97,18,M,57,The museum visited Mary,Non-sensible,edin_semantics,sem_emo_sem_emo,0.797419682261534,1,2,2,1,785069.457272446,16,A
74,2,7/7/97,18,M,58,Alex wrote the report,Sensible,edin_semantics,sem_emo_sem_emo,0.950817963341251,2,1,1,1,785071.150855937,149,A
74,2,7/7/97,18,M,59,The number dialed Tom,Non-sensible,edin_semantics,sem_emo_sem_emo,1.0797761247959,2,1,1,1,785072.973808751,63,A
74,2,7/7/97,18,M,60,Tim took the ticket,Sensible,edin_semantics,sem_emo_sem_emo,0.797780812485144,2,2,2,1,785074.514530524,128,A
74,2,7/7/97,18,M,61,Luke fixed the radio,Sensible,edin_semantics,sem_emo_sem_emo,3.13810059556272,2,2,2,1,785078.395720253,112,A
74,2,7/7/97,18,M,62,The dish served Kate,Non-sensible,edin_semantics,sem_emo_sem_emo,1.10345421475358,2,2,2,1,785080.242165461,70,A
74,2,7/7/97,18,M,63,Phil cancelled the party,Sensible,edin_semantics,sem_emo_sem_emo,1.04458612413146,2,2,2,1,785082.02985066,82,A
74,2,7/7/97,18,M,64,Ian mailed the invite,Sensible,edin_semantics,sem_emo_sem_emo,0.726838910253719,1,1,1,1,785083.499994869,89,A
74,2,7/7/97,18,M,65,The room tidied Sam,Non-sensible,edin_semantics,sem_emo_sem_emo,2.52615404559765,2,2,2,1,785086.769578972,2,A
74,2,7/7/97,18,M,66,Beth washed the pan,Sensible,edin_semantics,sem_emo_sem_emo,0.985545486444607,2,2,2,1,785088.498432002,132,A
74,2,7/7/97,18,M,67,The plans cancelled Ian,Non-sensible,edin_semantics,sem_emo_sem_emo,0.844462518813089,1,1,1,1,785090.086203988,7,A
74,2,7/7/97,18,M,68,The fruits mixed Jack,Non-sensible,edin_semantics,sem_emo_sem_emo,0.797418719972484,1,2,2,1,785091.626953984,8,A
74,2,7/7/97,18,M,69,Adam watched the opera,Sensible,edin_semantics,sem_emo_sem_emo,0.797627187799662,1,2,2,1,785093.167615462,108,A
74,2,7/7/97,18,M,70,The lever pulled Hugh,Non-sensible,edin_semantics,sem_emo_sem_emo,0.774030240019783,1,1,1,1,785094.684815657,45,A
74,2,7/7/97,18,M,71,Kate wore the dress,Sensible,edin_semantics,sem_emo_sem_emo,0.62112939497456,2,2,2,1,785096.049093839,100,A
74,2,7/7/97,18,M,72,The tomato sliced Liz,Non-sensible,edin_semantics,sem_emo_sem_emo,0.856388478772715,1,1,1,1,785097.648588128,3,A
74,2,7/7/97,18,M,73,The cake iced Mary,Non-sensible,edin_semantics,sem_emo_sem_emo,0.973734664847143,1,2,2,1,785099.365727514,44,A
74,2,7/7/97,18,M,74,Jay squeezed the lemon,Sensible,edin_semantics,sem_emo_sem_emo,1.00901318411343,2,2,2,1,785101.118130666,76,A
74,2,7/7/97,18,M,75,The pill swallowed Luke,Non-sensible,edin_semantics,sem_emo_sem_emo,0.891193295246921,2,2,2,1,785102.752904758,22,A
74,2,7/7/97,18,M,76,The fence jumped Jon,Non-sensible,edin_semantics,sem_emo_sem_emo,1.12695045652799,2,1,1,1,785104.622921897,17,A
74,2,7/7/97,18,M,77,Phil solved the problem,Sensible,edin_semantics,sem_emo_sem_emo,0.879549247794785,1,1,1,1,785106.245954442,109,A
74,2,7/7/97,18,M,78,The fur stroked Rob,Non-sensible,edin_semantics,sem_emo_sem_emo,1.13849187362939,1,1,1,1,785108.127728202,41,A
74,2,7/7/97,18,M,79,Jay painted the portrait,Sensible,edin_semantics,sem_emo_sem_emo,0.99751634709537,2,2,2,1,785109.868395581,110,A
74,2,7/7/97,18,M,80,Amy lifted the crate,Sensible,edin_semantics,sem_emo_sem_emo,1.32701601157896,2,2,2,1,785111.938354477,144,A
74,2,7/7/97,18,M,81,The wall punched Jane,Non-sensible,edin_semantics,sem_emo_sem_emo,1.11523745441809,2,2,2,1,785113.79659415,50,A
74,2,7/7/97,18,M,82,Andy pulled the rope,Sensible,edin_semantics,sem_emo_sem_emo,0.809413634706289,2,2,2,1,785115.349036622,148,A
74,2,7/7/97,18,M,83,Leo passed the salt,Sensible,edin_semantics,sem_emo_sem_emo,0.867885957239196,1,2,2,1,785116.960302605,118,A
74,2,7/7/97,18,M,84,The garlic crushed Erin,Non-sensible,edin_semantics,sem_emo_sem_emo,0.762081829714589,2,2,2,1,785118.465765102,6,A
74,2,7/7/97,18,M,85,Max kicked the door,Sensible,edin_semantics,sem_emo_sem_emo,0.679812430287711,1,2,2,1,785119.888840175,114,A
74,2,7/7/97,18,M,86,The bowl scrubbed Liz,Non-sensible,edin_semantics,sem_emo_sem_emo,0.691780725377612,1,2,2,1,785121.323703619,56,A
74,2,7/7/97,18,M,87,The jar labeled Liz,Non-sensible,edin_semantics,sem_emo_sem_emo,0.668183777481318,1,1,1,1,785122.735011488,61,A
74,2,7/7/97,18,M,88,The folder carried Dan,Non-sensible,edin_semantics,sem_emo_sem_emo,0.597593383979984,1,2,2,1,785124.075793428,30,A
74,2,7/7/97,18,M,89,The photo took Beth,Non-sensible,edin_semantics,sem_emo_sem_emo,0.98564106086269,1,1,1,1,785125.80465608,53,A
74,2,7/7/97,18,M,90,Joe entered the office,Sensible,edin_semantics,sem_emo_sem_emo,1.29141933843493,2,1,1,1,785127.839346399,133,A
74,2,7/7/97,18,M,91,Fred served the dessert,Sensible,edin_semantics,sem_emo_sem_emo,1.15039281744976,1,1,1,1,785129.73286876,145,A
74,2,7/7/97,18,M,92,The herbs chopped Phil,Non-sensible,edin_semantics,sem_emo_sem_emo,0.750717770541087,1,1,1,1,785131.226515304,27,A
74,2,7/7/97,18,M,93,The shirt ironed Josh,Non-sensible,edin_semantics,sem_emo_sem_emo,1.2323475908488,2,1,1,1,785133.202404563,55,A
74,2,7/7/97,18,M,94,Josh crushed the ice,Sensible,edin_semantics,sem_emo_sem_emo,1.08003783214372,2,1,1,1,785135.025371169,81,A
74,2,7/7/97,18,M,95,The movie watched Ella,Non-sensible,edin_semantics,sem_emo_sem_emo,0.867933423724025,2,1,1,1,785136.636661847,33,A
74,2,7/7/97,18,M,96,The story wrote Ewan,Non-sensible,edin_semantics,sem_emo_sem_emo,0.903251712326892,2,2,2,1,785138.283145734,74,A
74,2,7/7/97,18,M,97,The parcel mailed Rob,Non-sensible,edin_semantics,sem_emo_sem_emo,0.750296665704809,2,2,2,1,785139.776834613,14,A
74,2,7/7/97,18,M,98,The juice drank Matt,Non-sensible,edin_semantics,sem_emo_sem_emo,0.715419687330723,2,2,2,1,785141.235217711,60,A
74,2,7/7/97,18,M,99,Anna polished the trophy,Sensible,edin_semantics,sem_emo_sem_emo,0.656133057549596,2,2,2,1,785142.634808408,104,A
74,2,7/7/97,18,M,100,Lucy wiped the desk,Sensible,edin_semantics,sem_emo_sem_emo,0.586207195185125,1,1,1,1,785143.963812241,115,A
74,2,7/7/97,18,M,101,The paper cut Jon,Non-sensible,edin_semantics,sem_emo_sem_emo,0.950301925535314,1,2,2,1,785145.657396693,20,A
74,2,7/7/97,18,M,102,The pen described John,Non-sensible,edin_semantics,sem_emo_sem_emo,0.7501889038831,2,2,2,1,785147.15108012,42,A
74,2,7/7/97,18,M,103,The lorry dented Lily,Non-sensible,edin_semantics,sem_emo_sem_emo,0.597828150726855,2,1,1,1,785148.49181299,71,A
74,2,7/7/97,18,M,104,The bushes trimmed Jon,Non-sensible,edin_semantics,sem_emo_sem_emo,0.76233744318597,2,2,2,1,785149.997261375,32,A
74,2,7/7/97,18,M,105,The hill climbed Luke,Non-sensible,edin_semantics,sem_emo_sem_emo,0.985664473264478,2,2,2,1,785151.726113763,68,A
74,2,7/7/97,18,M,106,The bucket lent Max,Non-sensible,edin_semantics,sem_emo_sem_emo,0.644503763294779,1,1,1,1,785153.113935333,19,A
74,2,7/7/97,18,M,107,The towels passed Phil,Non-sensible,edin_semantics,sem_emo_sem_emo,0.961997608654201,2,1,1,1,785154.819306553,43,A
74,2,7/7/97,18,M,108,Luke watered the plants,Sensible,edin_semantics,sem_emo_sem_emo,0.926600102335215,1,1,1,1,785156.489379369,129,A
74,2,7/7/97,18,M,109,The shelf dusted Jake,Non-sensible,edin_semantics,sem_emo_sem_emo,1.15026164299343,1,1,1,1,785158.382854905,47,A
74,2,7/7/97,18,M,110,Zoe paid the debt,Sensible,edin_semantics,sem_emo_sem_emo,0.71546555031091,1,2,2,1,785159.84127649,134,A
74,2,7/7/97,18,M,111,Ella mashed the turnip,Sensible,edin_semantics,sem_emo_sem_emo,0.715006921091117,1,1,1,1,785161.29962912,103,A
74,2,7/7/97,18,M,112,The puzzle solved Joe,Non-sensible,edin_semantics,sem_emo_sem_emo,0.679656560532749,2,2,2,1,785162.722739792,34,A
74,2,7/7/97,18,M,113,The thread measured Amy,Non-sensible,edin_semantics,sem_emo_sem_emo,0.691636401461437,2,1,1,1,785164.157598426,51,A
74,2,7/7/97,18,M,114,Ryan stroked the blanket,Sensible,edin_semantics,sem_emo_sem_emo,0.667581145302393,1,2,2,1,785165.568920086,116,A
74,2,7/7/97,18,M,115,Lucy counted the shoes,Sensible,edin_semantics,sem_emo_sem_emo,0.762079905369319,1,1,1,1,785167.074328381,123,A
74,2,7/7/97,18,M,116,The teeth brushed Carl,Non-sensible,edin_semantics,sem_emo_sem_emo,0.82078442897182,2,2,2,1,785168.638559225,72,A
74,2,7/7/97,18,M,117,Lucy cut the ribbon,Sensible,edin_semantics,sem_emo_sem_emo,0.726735317730345,2,1,1,1,785170.108721073,95,A
74,2,7/7/97,18,M,118,Ian filed the report,Sensible,edin_semantics,sem_emo_sem_emo,0.762442959938198,1,1,1,1,785171.614138027,99,A
74,2,7/7/97,18,M,119,The box lifted Kate,Non-sensible,edin_semantics,sem_emo_sem_emo,0.75045029039029,1,1,1,1,785173.107826265,69,A
74,2,7/7/97,18,M,120,The lesson taught Eve,Non-sensible,edin_semantics,sem_emo_sem_emo,0.73835434904322,1,1,1,1,785174.589680268,15,A
74,2,7/7/97,18,M,121,Leo carried the wallet,Sensible,edin_semantics,sem_emo_sem_emo,0.797468752367422,1,2,2,1,785176.130376063,150,A
74,2,7/7/97,18,M,122,The tree hugged Amy,Non-sensible,edin_semantics,sem_emo_sem_emo,0.879510440747254,1,1,1,1,785177.753416626,11,A
74,2,7/7/97,18,M,123,Eve typed the message,Sensible,edin_semantics,sem_emo_sem_emo,1.32664141105488,1,2,2,1,785179.823357242,124,A
74,2,7/7/97,18,M,124,Tom offered the sweets,Sensible,edin_semantics,sem_emo_sem_emo,1.96170575381257,1,2,2,1,785182.528416402,84,A
74,2,7/7/97,18,M,125,The ball squeezed Josh,Non-sensible,edin_semantics,sem_emo_sem_emo,0.738342803088017,2,1,1,1,785184.010362772,1,A
74,2,7/7/97,18,M,126,The cheese grated Andy,Non-sensible,edin_semantics,sem_emo_sem_emo,0.938817275804468,2,1,1,1,785185.69214378,65,A
74,2,7/7/97,18,M,127,The eggs whisked Dan,Non-sensible,edin_semantics,sem_emo_sem_emo,0.750305004301481,1,2,2,1,785187.185802832,62,A
74,2,7/7/97,18,M,128,Liam sliced the onion,Sensible,edin_semantics,sem_emo_sem_emo,1.09103466721717,2,2,2,1,785189.020545621,78,A
74,2,7/7/97,18,M,129,Hugh kissed the rose,Sensible,edin_semantics,sem_emo_sem_emo,1.12668297626078,1,2,2,1,785190.890613755,98,A
74,2,7/7/97,18,M,130,The handle pulled Tim,Non-sensible,edin_semantics,sem_emo_sem_emo,0.938469615648501,2,1,1,1,785192.572422344,73,A
74,2,7/7/97,18,M,131,Owen swallowed the gum,Sensible,edin_semantics,sem_emo_sem_emo,0.926795741426758,2,1,1,1,785194.242522742,97,A
74,2,7/7/97,18,M,132,The scarf knitted Tom,Non-sensible,edin_semantics,sem_emo_sem_emo,0.950172675540671,1,2,2,1,785195.936045617,66,A
74,2,7/7/97,18,M,133,Liz weighed the sugar,Sensible,edin_semantics,sem_emo_sem_emo,0.856217214488424,2,1,1,1,785197.535572299,139,A
74,2,7/7/97,18,M,134,Rob measured the curtains,Sensible,edin_semantics,sem_emo_sem_emo,0.738531707087532,1,2,2,1,785199.017519311,126,A
74,2,7/7/97,18,M,135,The milk sniffed Phil,Non-sensible,edin_semantics,sem_emo_sem_emo,1.06775875983294,2,2,2,1,785200.828718071,18,A
74,2,7/7/97,18,M,136,Jack posted the gift,Sensible,edin_semantics,sem_emo_sem_emo,0.797491202596575,2,1,1,1,785202.369395585,111,A
74,2,7/7/97,18,M,137,The money offered Matt,Non-sensible,edin_semantics,sem_emo_sem_emo,0.809287912561558,1,1,1,1,785203.921867884,9,A
74,2,7/7/97,18,M,138,John carried the kettle,Sensible,edin_semantics,sem_emo_sem_emo,0.75068473641295,1,1,1,1,785205.415535275,105,A
74,2,7/7/97,18,M,139,The gun carried Ryan,Non-sensible,edin_semantics,sem_emo_sem_emo,0.867844584281556,2,1,1,1,785207.026764054,75,A
74,2,7/7/97,18,M,140,Hugh dialed the hotline,Sensible,edin_semantics,sem_emo_sem_emo,0.820873909746297,2,2,2,1,785208.591010293,138,A
74,2,7/7/97,18,M,141,The wine stored Leo,Non-sensible,edin_semantics,sem_emo_sem_emo,0.738963716314174,2,2,2,1,785210.072922025,52,A
74,2,7/7/97,18,M,142,Max searched the internet,Sensible,edin_semantics,sem_emo_sem_emo,0.632806476438418,1,1,1,1,785211.448995314,85,A
74,2,7/7/97,18,M,143,Adam chewed the fat,Sensible,edin_semantics,sem_emo_sem_emo,0.621141261653975,1,2,2,1,785212.81331102,106,A
74,2,7/7/97,18,M,144,The bill paid Mike,Non-sensible,edin_semantics,sem_emo_sem_emo,0.903517268248834,1,1,1,1,785214.459804207,59,A
74,2,7/7/97,18,M,145,The floor cleaned Tim,Non-sensible,edin_semantics,sem_emo_sem_emo,0.903639141586609,2,1,1,1,785216.106381102,5,A
74,2,7/7/97,18,M,146,The spoon licked Will,Non-sensible,edin_semantics,sem_emo_sem_emo,0.879803257761523,1,1,1,1,785217.729421986,21,A
74,2,7/7/97,18,M,147,The toffee chewed Ben,Non-sensible,edin_semantics,sem_emo_sem_emo,0.644328971160576,1,1,1,1,785219.117183581,31,A
74,2,7/7/97,18,M,148,The sofa sold Carl,Non-sensible,edin_semantics,sem_emo_sem_emo,1.0679059701506,1,2,2,1,785220.928429487,38,A
74,2,7/7/97,18,M,149,Rose built the shed,Sensible,edin_semantics,sem_emo_sem_emo,0.762090168427676,2,1,1,1,785222.433830085,121,A
74,2,7/7/97,18,M,150,The trolley pushed Matt,Non-sensible,edin_semantics,sem_emo_sem_emo,0.773713689763099,1,2,2,1,785223.951009433,26,A
74,2,7/7/97,18,M,151,The debt paid Zoe,Non-sensible,edin_semantics,sem_emo_sem_emo,2.46166341891512,2,2,2,1,785236.300171777,134,B
74,2,7/7/97,18,M,152,The report wrote Alex,Non-sensible,edin_semantics,sem_emo_sem_emo,1.11466240417212,1,1,1,1,785238.158420751,149,B
74,2,7/7/97,18,M,153,Eve taught the lesson,Sensible,edin_semantics,sem_emo_sem_emo,1.60858123889193,2,1,1,1,785240.510643081,15,B
74,2,7/7/97,18,M,154,The hedge jumped Sara,Non-sensible,edin_semantics,sem_emo_sem_emo,0.679622243507765,2,2,2,1,785241.933734511,92,B
74,2,7/7/97,18,M,155,Josh ironed the shirt,Sensible,edin_semantics,sem_emo_sem_emo,0.585529193747789,2,1,1,1,785243.262756945,55,B
74,2,7/7/97,18,M,156,The kettle carried John,Non-sensible,edin_semantics,sem_emo_sem_emo,0.820393151021563,1,1,1,1,785244.827003504,105,B
74,2,7/7/97,18,M,157,The onion sliced Liam,Non-sensible,edin_semantics,sem_emo_sem_emo,0.666625721380115,1,2,2,1,785246.238285715,78,B
74,2,7/7/97,18,M,158,Jeff watered the garden,Sensible,edin_semantics,sem_emo_sem_emo,0.607843583798967,1,2,2,1,785247.591053269,54,B
74,2,7/7/97,18,M,159,The dress wore Kate,Non-sensible,edin_semantics,sem_emo_sem_emo,0.737694949493743,2,2,2,1,785249.07271452,100,B
74,2,7/7/97,18,M,160,The rice stored Fred,Non-sensible,edin_semantics,sem_emo_sem_emo,0.679639241774566,2,1,1,1,785250.49581076,127,B
74,2,7/7/97,18,M,161,Jen searched the room,Sensible,edin_semantics,sem_emo_sem_emo,0.644015948753804,2,2,2,1,785251.883643875,10,B
74,2,7/7/97,18,M,162,Leah sucked the lolly,Sensible,edin_semantics,sem_emo_sem_emo,0.71488087833859,1,2,2,1,785253.342000354,12,B
74,2,7/7/97,18,M,163,Matt kicked the bike,Sensible,edin_semantics,sem_emo_sem_emo,1.12640330882277,1,1,1,1,785255.212018776,39,B
74,2,7/7/97,18,M,164,The beer drank Jack,Non-sensible,edin_semantics,sem_emo_sem_emo,0.903040999546647,2,1,1,1,785256.858568731,135,B
74,2,7/7/97,18,M,165,Jane punched the wall,Sensible,edin_semantics,sem_emo_sem_emo,0.844230959191918,1,2,2,1,785258.446316342,50,B
74,2,7/7/97,18,M,166,Amy hugged the tree,Sensible,edin_semantics,sem_emo_sem_emo,0.644503121846356,1,1,1,1,785259.834129253,11,B
74,2,7/7/97,18,M,167,The garage tidied Erin,Non-sensible,edin_semantics,sem_emo_sem_emo,0.67951929254923,1,1,1,1,785261.257231587,77,B
74,2,7/7/97,18,M,168,The carrots grated Tom,Non-sensible,edin_semantics,sem_emo_sem_emo,0.773351276642643,2,2,2,1,785262.774385277,140,B
74,2,7/7/97,18,M,169,The rope pulled Andy,Non-sensible,edin_semantics,sem_emo_sem_emo,0.609087334596552,1,2,2,1,785264.126944684,148,B
74,2,7/7/97,18,M,170,John described the pen,Sensible,edin_semantics,sem_emo_sem_emo,2.54972373205237,2,2,2,1,785267.42007025,42,B
74,2,7/7/97,18,M,171,The shoes counted Lucy,Non-sensible,edin_semantics,sem_emo_sem_emo,0.867359976982698,2,1,1,1,785269.031310255,123,B
74,2,7/7/97,18,M,172,The box labeled Ian,Non-sensible,edin_semantics,sem_emo_sem_emo,0.761898698750883,2,2,2,1,785270.536723041,136,B
74,2,7/7/97,18,M,173,Beth wiped the table,Sensible,edin_semantics,sem_emo_sem_emo,0.83255195338279,1,2,2,1,785272.112733917,40,B
74,2,7/7/97,18,M,174,Mark washed the dishes,Sensible,edin_semantics,sem_emo_sem_emo,0.702895905938931,1,1,1,1,785273.55934917,57,B
74,2,7/7/97,18,M,175,The monitor punched Erin,Non-sensible,edin_semantics,sem_emo_sem_emo,0.668012513197027,1,1,1,1,785274.970690394,125,B
74,2,7/7/97,18,M,176,Luke climbed the hill,Sensible,edin_semantics,sem_emo_sem_emo,0.667911486467347,2,2,2,1,785276.382008847,68,B
74,2,7/7/97,18,M,177,Kate built the house,Sensible,edin_semantics,sem_emo_sem_emo,0.643941541784443,2,2,2,1,785277.769798986,46,B
74,2,7/7/97,18,M,178,Ian cancelled the plans,Sensible,edin_semantics,sem_emo_sem_emo,0.643976820865646,1,1,1,1,785279.157645892,7,B
74,2,7/7/97,18,M,179,Mike paid the bill,Sensible,edin_semantics,sem_emo_sem_emo,0.66798332775943,2,1,1,1,785280.568938367,59,B
74,2,7/7/97,18,M,180,The ribbon cut Lucy,Non-sensible,edin_semantics,sem_emo_sem_emo,0.796868044417351,1,1,1,1,785282.109657253,95,B
74,2,7/7/97,18,M,181,Rob mailed the parcel,Sensible,edin_semantics,sem_emo_sem_emo,0.726696189958602,1,2,2,1,785283.579801782,14,B
74,2,7/7/97,18,M,182,Jon trimmed the bushes,Sensible,edin_semantics,sem_emo_sem_emo,0.667653307202272,2,2,1,0,785284.991121839,32,B
74,2,7/7/97,18,M,183,The invite mailed Ian,Non-sensible,edin_semantics,sem_emo_sem_emo,1.43229031027295,2,1,1,1,785287.166964722,89,B
74,2,7/7/97,18,M,184,The office entered Joe,Non-sensible,edin_semantics,sem_emo_sem_emo,0.608721072669141,2,1,1,1,785288.519465758,133,B
74,2,7/7/97,18,M,185,The crate lifted Amy,Non-sensible,edin_semantics,sem_emo_sem_emo,0.785067165154032,1,2,2,1,785290.048388256,144,B
74,2,7/7/97,18,M,186,Will licked the spoon,Sensible,edin_semantics,sem_emo_sem_emo,1.18482752342243,2,1,1,1,785291.977213511,21,B
74,2,7/7/97,18,M,187,Jake dusted the shelf,Sensible,edin_semantics,sem_emo_sem_emo,0.820602901629172,2,1,1,1,785293.541456863,47,B
74,2,7/7/97,18,M,188,The door kicked Max,Non-sensible,edin_semantics,sem_emo_sem_emo,0.667697887169197,1,2,2,1,785294.952771146,114,B
74,2,7/7/97,18,M,189,The rope pulled Emma,Non-sensible,edin_semantics,sem_emo_sem_emo,0.702675571548752,2,2,2,1,785296.399378381,120,B
74,2,7/7/97,18,M,190,Mary visited the museum,Sensible,edin_semantics,sem_emo_sem_emo,0.820438693161123,1,2,2,1,785297.963619167,16,B
74,2,7/7/97,18,M,191,Phil typed the letter,Sensible,edin_semantics,sem_emo_sem_emo,0.844389394624159,2,1,1,1,785299.551359402,49,B
74,2,7/7/97,18,M,192,The report filed Ian,Non-sensible,edin_semantics,sem_emo_sem_emo,0.69144300755579,1,1,1,1,785300.986213225,99,B
74,2,7/7/97,18,M,193,Joe wore the jumper,Sensible,edin_semantics,sem_emo_sem_emo,0.714971321285702,2,1,1,1,785302.444585739,25,B
74,2,7/7/97,18,M,194,Max lent the bucket,Sensible,edin_semantics,sem_emo_sem_emo,0.608687717816792,2,1,1,1,785303.797096718,19,B
74,2,7/7/97,18,M,195,Liz sliced the tomato,Sensible,edin_semantics,sem_emo_sem_emo,0.668011551140808,2,1,1,1,785305.20845045,3,B
74,2,7/7/97,18,M,196,The ticket took Tim,Non-sensible,edin_semantics,sem_emo_sem_emo,1.10285446897615,2,2,2,1,785307.054943444,128,B
74,2,7/7/97,18,M,197,The party cancelled Phil,Non-sensible,edin_semantics,sem_emo_sem_emo,0.609280407661572,2,2,2,1,785308.407473986,82,B
74,2,7/7/97,18,M,198,The opera watched Adam,Non-sensible,edin_semantics,sem_emo_sem_emo,0.608827872318216,2,2,2,1,785309.759998756,108,B
74,2,7/7/97,18,M,199,Tim pulled the handle,Sensible,edin_semantics,sem_emo_sem_emo,0.6090918246191,1,1,1,1,785311.112535071,73,B
74,2,7/7/97,18,M,200,Will mashed the potatoes,Sensible,edin_semantics,sem_emo_sem_emo,1.56171640183311,2,2,2,1,785313.417722262,28,B
74,2,7/7/97,18,M,201,The carrots chopped Fred,Non-sensible,edin_semantics,sem_emo_sem_emo,0.761691834544763,2,2,2,1,785314.923142424,102,B
74,2,7/7/97,18,M,202,The perfume sniffed Tim,Non-sensible,edin_semantics,sem_emo_sem_emo,0.726658986532129,2,1,1,1,785316.393274445,93,B
74,2,7/7/97,18,M,203,The car lent Fred,Non-sensible,edin_semantics,sem_emo_sem_emo,0.75015843543224,1,2,2,1,785317.886911367,94,B
74,2,7/7/97,18,M,204,Ryan entered the room,Sensible,edin_semantics,sem_emo_sem_emo,0.879386963555589,1,2,2,1,785319.509984644,58,B
74,2,7/7/97,18,M,205,The poster read Luke,Non-sensible,edin_semantics,sem_emo_sem_emo,1.36181088571902,2,1,1,1,785321.615189346,79,B
74,2,7/7/97,18,M,206,The blanket stroked Ryan,Non-sensible,edin_semantics,sem_emo_sem_emo,0.726362641551532,1,2,2,1,785323.085323292,116,B
74,2,7/7/97,18,M,207,The hair brushed Dan,Non-sensible,edin_semantics,sem_emo_sem_emo,0.737836386775598,1,1,1,1,785324.567233742,147,B
74,2,7/7/97,18,M,208,The wallet carried Leo,Non-sensible,edin_semantics,sem_emo_sem_emo,0.797143863281235,1,2,2,1,785326.107930178,150,B
74,2,7/7/97,18,M,209,The trophy polished Anna,Non-sensible,edin_semantics,sem_emo_sem_emo,0.725983871612698,1,2,2,1,785327.578069576,104,B
74,2,7/7/97,18,M,210,The shed built Rose,Non-sensible,edin_semantics,sem_emo_sem_emo,0.644420376163907,1,1,1,1,785328.965896597,121,B
74,2,7/7/97,18,M,211,The house dusted Alex,Non-sensible,edin_semantics,sem_emo_sem_emo,1.43215528724249,1,2,2,1,785331.141676299,122,B
74,2,7/7/97,18,M,212,The cream whisked Tom,Non-sensible,edin_semantics,sem_emo_sem_emo,0.702678458066657,2,1,1,1,785332.58831272,137,B
74,2,7/7/97,18,M,213,The hotline dialed Hugh,Non-sensible,edin_semantics,sem_emo_sem_emo,0.726473610498942,1,2,2,1,785334.058453721,138,B
74,2,7/7/97,18,M,214,Phil passed the towels,Sensible,edin_semantics,sem_emo_sem_emo,0.738453130587004,2,1,1,1,785335.54034172,43,B
74,2,7/7/97,18,M,215,Dan carried the folder,Sensible,edin_semantics,sem_emo_sem_emo,0.761482725385576,1,2,2,1,785337.045746488,30,B
74,2,7/7/97,18,M,216,Luke swallowed the pill,Sensible,edin_semantics,sem_emo_sem_emo,0.608582521788776,1,2,2,1,785338.398267408,22,B
74,2,7/7/97,18,M,217,Jon polished the coins,Sensible,edin_semantics,sem_emo_sem_emo,0.808713824488223,2,1,1,1,785339.950773383,29,B
74,2,7/7/97,18,M,218,Josh squeezed the ball,Sensible,edin_semantics,sem_emo_sem_emo,0.702885642880574,1,1,1,1,785341.39737228,1,B
74,2,7/7/97,18,M,219,Jon jumped the fence,Sensible,edin_semantics,sem_emo_sem_emo,0.808643266092986,2,1,1,1,785342.949845221,17,B
74,2,7/7/97,18,M,220,The pillow hugged Kate,Non-sensible,edin_semantics,sem_emo_sem_emo,0.679243152961135,1,2,2,1,785344.372897202,86,B
74,2,7/7/97,18,M,221,Bill counted the sheets,Sensible,edin_semantics,sem_emo_sem_emo,0.62044273421634,2,2,2,1,785345.737197513,48,B
74,2,7/7/97,18,M,222,Max kissed the mirror,Sensible,edin_semantics,sem_emo_sem_emo,0.714793963357806,1,1,1,1,785347.195625192,23,B
74,2,7/7/97,18,M,223,Ben chewed the toffee,Sensible,edin_semantics,sem_emo_sem_emo,0.773369236849248,2,1,1,1,785348.712773109,31,B
74,2,7/7/97,18,M,224,The salt passed Leo,Non-sensible,edin_semantics,sem_emo_sem_emo,0.644033909076825,1,2,2,1,785350.100602055,118,B
74,2,7/7/97,18,M,225,Erin posted the card,Sensible,edin_semantics,sem_emo_sem_emo,0.656127605354413,1,2,2,1,785351.500192752,36,B
74,2,7/7/97,18,M,226,Joe solved the puzzle,Sensible,edin_semantics,sem_emo_sem_emo,0.655365575570613,1,2,2,1,785352.899722193,34,B
74,2,7/7/97,18,M,227,Lily dented the lorry,Sensible,edin_semantics,sem_emo_sem_emo,0.667732524918392,2,1,1,1,785354.311070472,71,B
74,2,7/7/97,18,M,228,Amy measured the thread,Sensible,edin_semantics,sem_emo_sem_emo,0.796952714328654,1,1,1,1,785355.851782303,51,B
74,2,7/7/97,18,M,229,Beth took the photo,Sensible,edin_semantics,sem_emo_sem_emo,0.609184833243489,1,1,1,1,785357.204283981,53,B
74,2,7/7/97,18,M,230,The plate licked Jane,Non-sensible,edin_semantics,sem_emo_sem_emo,0.656100985594094,1,2,2,1,785358.603858321,96,B
74,2,7/7/97,18,M,231,The desk wiped Lucy,Non-sensible,edin_semantics,sem_emo_sem_emo,0.773870200966485,1,1,1,1,785360.121122018,115,B
74,2,7/7/97,18,M,232,The trousers ironed Eve,Non-sensible,edin_semantics,sem_emo_sem_emo,0.643978424603119,1,2,2,1,785361.508846089,130,B
74,2,7/7/97,18,M,233,Liz labeled the jar,Sensible,edin_semantics,sem_emo_sem_emo,0.725619854754768,1,1,1,1,785362.978999278,61,B
74,2,7/7/97,18,M,234,The button pushed Ian,Non-sensible,edin_semantics,sem_emo_sem_emo,0.666352789034136,2,1,1,1,785364.390323824,101,B
74,2,7/7/97,18,M,235,Phil sniffed the milk,Sensible,edin_semantics,sem_emo_sem_emo,0.725512093049474,1,2,2,1,785365.860459694,18,B
74,2,7/7/97,18,M,236,The pot scrubbed Josh,Non-sensible,edin_semantics,sem_emo_sem_emo,1.00788232672494,2,1,1,1,785367.61285996,131,B
74,2,7/7/97,18,M,237,Andy grated the cheese,Sensible,edin_semantics,sem_emo_sem_emo,0.65466544451192,2,1,1,1,785369.012418265,65,B
74,2,7/7/97,18,M,238,The gum swallowed Owen,Non-sensible,edin_semantics,sem_emo_sem_emo,0.66627453349065,2,1,1,1,785370.423765903,97,B
74,2,7/7/97,18,M,239,Sam tidied the room,Sensible,edin_semantics,sem_emo_sem_emo,0.678993633016944,2,2,2,1,785371.846876896,2,B
74,2,7/7/97,18,M,240,The rose kissed Hugh,Non-sensible,edin_semantics,sem_emo_sem_emo,0.667136948555708,1,2,2,1,785373.258170974,98,B
74,2,7/7/97,18,M,241,The bath cleaned Jack,Non-sensible,edin_semantics,sem_emo_sem_emo,0.561183686368167,1,2,2,1,785374.56367215,80,B
74,2,7/7/97,18,M,242,Matt pushed the trolley,Sensible,edin_semantics,sem_emo_sem_emo,0.702280765748583,2,2,2,1,785376.010275216,26,B
74,2,7/7/97,18,M,243,Kate served the dish,Sensible,edin_semantics,sem_emo_sem_emo,0.584584033116698,2,2,2,1,785377.339272954,70,B
74,2,7/7/97,18,M,244,The stairs climbed Ben,Non-sensible,edin_semantics,sem_emo_sem_emo,0.467060488997959,1,1,1,1,785378.55068525,143,B
74,2,7/7/97,18,M,245,Ewan wrote the story,Sensible,edin_semantics,sem_emo_sem_emo,0.643594523076899,1,2,2,1,785379.938524459,74,B
74,2,7/7/97,18,M,246,The plants watered Luke,Non-sensible,edin_semantics,sem_emo_sem_emo,1.56074718700256,1,1,1,1,785382.243648468,129,B
74,2,7/7/97,18,M,247,The turnip mashed Ella,Non-sensible,edin_semantics,sem_emo_sem_emo,1.00796026166063,2,1,1,1,785383.996080485,103,B
74,2,7/7/97,18,M,248,Matt drank the juice,Sensible,edin_semantics,sem_emo_sem_emo,0.914453166536987,2,2,2,1,785385.654411755,60,B
74,2,7/7/97,18,M,249,The message typed Eve,Non-sensible,edin_semantics,sem_emo_sem_emo,0.573028504382819,2,2,2,1,785386.971633951,124,B
74,2,7/7/97,18,M,250,Leo stored the wine,Sensible,edin_semantics,sem_emo_sem_emo,0.584507380961441,2,2,2,1,785388.300615333,52,B
74,2,7/7/97,18,M,251,Ryan painted the picture,Sensible,edin_semantics,sem_emo_sem_emo,0.690472509828396,1,1,1,1,785389.735491605,35,B
74,2,7/7/97,18,M,252,Matt offered the money,Sensible,edin_semantics,sem_emo_sem_emo,0.620089621865191,2,1,1,1,785391.099755996,9,B
74,2,7/7/97,18,M,253,The problem solved Phil,Non-sensible,edin_semantics,sem_emo_sem_emo,0.585000647814013,2,1,1,1,785392.428766884,109,B
74,2,7/7/97,18,M,254,The bowl dented Ian,Non-sensible,edin_semantics,sem_emo_sem_emo,0.654961147927679,2,2,2,1,785393.828379391,146,B
74,2,7/7/97,18,M,255,The church described Erin,Non-sensible,edin_semantics,sem_emo_sem_emo,0.632152849924751,2,1,1,1,785395.204410344,117,B
74,2,7/7/97,18,M,256,The hair trimmed Bill,Non-sensible,edin_semantics,sem_emo_sem_emo,0.702452992205508,1,1,1,1,785396.650999298,107,B
74,2,7/7/97,18,M,257,The portrait painted Jay,Non-sensible,edin_semantics,sem_emo_sem_emo,0.643400487839244,2,2,2,1,785398.038818623,110,B
74,2,7/7/97,18,M,258,Jen weighed the flour,Sensible,edin_semantics,sem_emo_sem_emo,0.572747874655761,2,2,2,1,785399.356052685,64,B
74,2,7/7/97,18,M,259,Tom dialed the number,Sensible,edin_semantics,sem_emo_sem_emo,0.679072850849479,2,1,1,1,785400.77914636,63,B
74,2,7/7/97,18,M,260,The donut iced Joe,Non-sensible,edin_semantics,sem_emo_sem_emo,0.83211641618982,1,1,1,1,785402.355129333,119,B
74,2,7/7/97,18,M,261,The sugar weighed Liz,Non-sensible,edin_semantics,sem_emo_sem_emo,0.667244389653206,2,1,1,1,785403.766483707,139,B
74,2,7/7/97,18,M,262,Sean read the book,Sensible,edin_semantics,sem_emo_sem_emo,0.819678587606177,2,2,2,1,785405.33071006,4,B
74,2,7/7/97,18,M,263,The gift posted Jack,Non-sensible,edin_semantics,sem_emo_sem_emo,0.925668411888182,1,1,1,1,785407.00078865,111,B
74,2,7/7/97,18,M,264,Jon cut the paper,Sensible,edin_semantics,sem_emo_sem_emo,0.714483506744727,2,2,2,1,785408.45913679,20,B
74,2,7/7/97,18,M,265,Tim ate the ham,Sensible,edin_semantics,sem_emo_sem_emo,0.702597636729479,1,1,1,1,785409.905772569,67,B
74,2,7/7/97,18,M,266,The radio fixed Luke,Non-sensible,edin_semantics,sem_emo_sem_emo,0.737542286864482,2,2,2,1,785411.387698413,112,B
74,2,7/7/97,18,M,267,The sweets offered Tom,Non-sensible,edin_semantics,sem_emo_sem_emo,0.643465914647095,1,2,2,1,785412.77549657,84,B
74,2,7/7/97,18,M,268,The socks knitted Ryan,Non-sensible,edin_semantics,sem_emo_sem_emo,0.596483052475378,2,1,1,1,785414.116255098,141,B
74,2,7/7/97,18,M,269,Jen fixed the laptop,Sensible,edin_semantics,sem_emo_sem_emo,0.619945939513855,1,1,1,1,785415.480516923,37,B
74,2,7/7/97,18,M,270,The nuts mixed Liam,Non-sensible,edin_semantics,sem_emo_sem_emo,0.537862878292799,1,1,1,1,785416.762506142,83,B
74,2,7/7/97,18,M,271,Rob stroked the fur,Sensible,edin_semantics,sem_emo_sem_emo,0.514056500629522,2,1,1,1,785418.020951011,41,B
74,2,7/7/97,18,M,272,Tim cleaned the floor,Sensible,edin_semantics,sem_emo_sem_emo,0.525556224049069,2,1,1,1,785419.291153783,5,B
74,2,7/7/97,18,M,273,Liz scrubbed the bowl,Sensible,edin_semantics,sem_emo_sem_emo,0.690438192919828,1,2,2,1,785420.72595629,56,B
74,2,7/7/97,18,M,274,Phil chopped the herbs,Sensible,edin_semantics,sem_emo_sem_emo,0.666714881546795,1,1,1,1,785422.137312908,27,B
74,2,7/7/97,18,M,275,Lily got the kettle,Sensible,edin_semantics,sem_emo_sem_emo,0.607469945447519,1,1,1,1,785423.489826132,13,B
74,2,7/7/97,18,M,276,Tom knitted the scarf,Sensible,edin_semantics,sem_emo_sem_emo,0.631236233166419,1,2,2,1,785424.865885308,66,B
74,2,7/7/97,18,M,277,The steak ate Mike,Non-sensible,edin_semantics,sem_emo_sem_emo,0.573032994405366,1,2,2,1,785426.183116805,142,B
74,2,7/7/97,18,M,278,The internet searched Max,Non-sensible,edin_semantics,sem_emo_sem_emo,0.725425498676486,1,1,1,1,785427.653290519,85,B
74,2,7/7/97,18,M,279,Mary iced the cake,Sensible,edin_semantics,sem_emo_sem_emo,0.666833227034658,1,2,2,1,785429.06461699,44,B
74,2,7/7/97,18,M,280,The ice crushed Josh,Non-sensible,edin_semantics,sem_emo_sem_emo,0.561491577303968,2,1,1,1,785430.370071341,81,B
74,2,7/7/97,18,M,281,Jack mixed the fruits,Sensible,edin_semantics,sem_emo_sem_emo,0.608439160045236,1,2,2,1,785431.722624975,8,B
74,2,7/7/97,18,M,282,Carl brushed the teeth,Sensible,edin_semantics,sem_emo_sem_emo,0.56123179430142,1,2,2,1,785433.028096324,72,B
74,2,7/7/97,18,M,283,Ryan carried the gun,Sensible,edin_semantics,sem_emo_sem_emo,0.713675613864325,2,1,1,1,785434.486490006,75,B
74,2,7/7/97,18,M,284,Ella watched the movie,Sensible,edin_semantics,sem_emo_sem_emo,0.619665630511008,1,1,1,1,785435.850776206,33,B
74,2,7/7/97,18,M,285,The candy sucked Sam,Non-sensible,edin_semantics,sem_emo_sem_emo,0.561504085431807,2,1,1,1,785437.156222218,87,B
74,2,7/7/97,18,M,286,The pan washed Beth,Non-sensible,edin_semantics,sem_emo_sem_emo,0.713710572337732,1,2,2,1,785438.614646368,132,B
74,2,7/7/97,18,M,287,The bed sold Jay,Non-sensible,edin_semantics,sem_emo_sem_emo,0.984642981318757,2,1,1,1,785440.343472137,113,B
74,2,7/7/97,18,M,288,The hospital visited Tom,Non-sensible,edin_semantics,sem_emo_sem_emo,0.643442822853103,1,1,1,1,785441.731327702,91,B
74,2,7/7/97,18,M,289,Kate lifted the box,Sensible,edin_semantics,sem_emo_sem_emo,0.725820625317283,1,1,1,1,785443.201442084,69,B
74,2,7/7/97,18,M,290,The curtains measured Rob,Non-sensible,edin_semantics,sem_emo_sem_emo,1.60778328846209,1,2,2,1,785445.553668584,126,B
74,2,7/7/97,18,M,291,Hugh pulled the lever,Sensible,edin_semantics,sem_emo_sem_emo,1.23161057708785,1,1,1,1,785447.52952064,45,B
74,2,7/7/97,18,M,292,The rules taught Josh,Non-sensible,edin_semantics,sem_emo_sem_emo,0.761292217997834,1,2,2,1,785449.03498474,90,B
74,2,7/7/97,18,M,293,Carl sold the sofa,Sensible,edin_semantics,sem_emo_sem_emo,0.784663058351725,2,2,2,1,785450.56387709,38,B
74,2,7/7/97,18,M,294,The lemon squeezed Jay,Non-sensible,edin_semantics,sem_emo_sem_emo,1.25502888404299,1,2,2,1,785452.563279589,76,B
74,2,7/7/97,18,M,295,The dessert served Fred,Non-sensible,edin_semantics,sem_emo_sem_emo,0.725786949740723,1,1,1,1,785454.033427967,145,B
74,2,7/7/97,18,M,296,Dan whisked the eggs,Sensible,edin_semantics,sem_emo_sem_emo,0.655268397531472,1,2,2,1,785455.43298114,62,B
74,2,7/7/97,18,M,297,The radio got Ben,Non-sensible,edin_semantics,sem_emo_sem_emo,0.772446847171523,1,2,2,1,785456.95016145,88,B
74,2,7/7/97,18,M,298,Lara filed the papers,Sensible,edin_semantics,sem_emo_sem_emo,0.808261930476874,2,2,2,1,785458.502650427,24,B
74,2,7/7/97,18,M,299,Erin crushed the garlic,Sensible,edin_semantics,sem_emo_sem_emo,0.937643762561493,2,2,2,1,785460.184498144,6,B
74,2,7/7/97,18,M,300,The fat chewed Adam,Non-sensible,edin_semantics,sem_emo_sem_emo,0.902040674933232,2,2,2,1,785461.831023083,106,B
