subject_column,AssignedList_column,subject_dob_column,subject_age_column,subject_gender_column,trialnum_column,Stim_column,Type_column,Experiment_column,OrderGroup_column,ReactionTime_column,StimSide_column,StimPosition_column,Response_column,Valid_column,TrialEndSecs_column,PairID_column,List_column
9,1,27/3/95,21,m,1,The museum visited Mary,Non-sensible,edin_semantics,emo_sem_emo_sem,2.81385633203899,2,1,1,1,273638.108738448,16,A
9,1,27/3/95,21,m,2,Liz weighed the sugar,Sensible,edin_semantics,emo_sem_emo_sem,3.11368076899089,2,2,2,1,273641.966400553,139,A
9,1,27/3/95,21,m,3,The fur stroked Rob,Non-sensible,edin_semantics,emo_sem_emo_sem,3.51237504679011,2,2,2,1,273646.223936551,41,A
9,1,27/3/95,21,m,4,Josh taught the rules,Sensible,edin_semantics,emo_sem_emo_sem,2.4551637476543,1,1,1,1,273649.422986702,90,A
9,1,27/3/95,21,m,5,The paper cut Jon,Non-sensible,edin_semantics,emo_sem_emo_sem,2.99645634589251,1,1,1,1,273653.163021558,20,A
9,1,27/3/95,21,m,6,The ball squeezed Josh,Non-sensible,edin_semantics,emo_sem_emo_sem,3.06722038204316,2,2,2,1,273656.973682539,1,A
9,1,27/3/95,21,m,7,Fred lent the car,Sensible,edin_semantics,emo_sem_emo_sem,2.36118651635479,1,1,1,1,273660.078640961,94,A
9,1,27/3/95,21,m,8,Amy lifted the crate,Sensible,edin_semantics,emo_sem_emo_sem,3.38398950855481,2,1,1,1,273664.206787562,144,A
9,1,27/3/95,21,m,9,Fred served the dessert,Sensible,edin_semantics,emo_sem_emo_sem,2.92567691521253,2,2,2,1,273667.876277114,145,A
9,1,27/3/95,21,m,10,The dishes washed Mark,Non-sensible,edin_semantics,emo_sem_emo_sem,3.03194195707329,2,2,2,1,273671.651617656,57,A
9,1,27/3/95,21,m,11,Erin described the church,Sensible,edin_semantics,emo_sem_emo_sem,2.65479729109211,2,2,2,1,273675.050599942,117,A
9,1,27/3/95,21,m,12,The jar labeled Liz,Non-sensible,edin_semantics,emo_sem_emo_sem,3.16130826232256,2,2,2,1,273678.95528049,61,A
9,1,27/3/95,21,m,13,The folder carried Dan,Non-sensible,edin_semantics,emo_sem_emo_sem,4.29081151570426,1,1,1,1,273683.989120799,30,A
9,1,27/3/95,21,m,14,Ian labeled the box,Sensible,edin_semantics,emo_sem_emo_sem,2.74934508628212,1,1,1,1,273687.482122331,136,A
9,1,27/3/95,21,m,15,The tree hugged Amy,Non-sensible,edin_semantics,emo_sem_emo_sem,3.97326880838955,2,2,2,1,273692.198384332,11,A
9,1,27/3/95,21,m,16,Phil solved the problem,Sensible,edin_semantics,emo_sem_emo_sem,2.83058325166348,2,2,2,1,273695.773725709,109,A
9,1,27/3/95,21,m,17,Fred chopped the carrots,Sensible,edin_semantics,emo_sem_emo_sem,3.58394954662072,2,1,1,1,273700.101925036,102,A
9,1,27/3/95,21,m,18,Eve typed the message,Sensible,edin_semantics,emo_sem_emo_sem,2.26793251244817,2,1,1,1,273703.11274362,124,A
9,1,27/3/95,21,m,19,Liam sliced the onion,Sensible,edin_semantics,emo_sem_emo_sem,3.38393209932838,2,1,1,1,273707.240904974,78,A
9,1,27/3/95,21,m,20,Luke watered the plants,Sensible,edin_semantics,emo_sem_emo_sem,3.14963912393432,2,2,2,1,273711.133868917,129,A
9,1,27/3/95,21,m,21,The movie watched Ella,Non-sensible,edin_semantics,emo_sem_emo_sem,3.12566581822466,2,2,2,1,273715.003305679,33,A
9,1,27/3/95,21,m,22,Max kicked the door,Sensible,edin_semantics,emo_sem_emo_sem,2.93792880489491,1,1,1,1,273718.684556096,114,A
9,1,27/3/95,21,m,23,The pill swallowed Luke,Non-sensible,edin_semantics,emo_sem_emo_sem,2.80819687695475,1,1,1,1,273722.236416795,22,A
9,1,27/3/95,21,m,24,The lolly sucked Leah,Non-sensible,edin_semantics,emo_sem_emo_sem,3.53679351427127,2,1,1,1,273726.517460731,12,A
9,1,27/3/95,21,m,25,The fence jumped Jon,Non-sensible,edin_semantics,emo_sem_emo_sem,2.44416106899735,1,2,2,1,273729.704751941,17,A
9,1,27/3/95,21,m,26,Luke read the poster,Sensible,edin_semantics,emo_sem_emo_sem,3.54906400578329,2,2,2,1,273733.997581438,79,A
9,1,27/3/95,21,m,27,The papers filed Lara,Non-sensible,edin_semantics,emo_sem_emo_sem,3.65496342489496,1,1,1,1,273738.396284375,24,A
9,1,27/3/95,21,m,28,Beth washed the pan,Sensible,edin_semantics,emo_sem_emo_sem,2.51488244906068,1,1,1,1,273741.654099721,132,A
9,1,27/3/95,21,m,29,The potatoes mashed Will,Non-sensible,edin_semantics,emo_sem_emo_sem,3.37302595790243,1,1,1,1,273745.770512398,28,A
9,1,27/3/95,21,m,30,Jay painted the portrait,Sensible,edin_semantics,emo_sem_emo_sem,4.20791810564697,2,1,1,1,273750.721982394,110,A
9,1,27/3/95,21,m,31,Ian pushed the button,Sensible,edin_semantics,emo_sem_emo_sem,3.72553502791561,2,2,2,1,273755.191200808,101,A
9,1,27/3/95,21,m,32,The scarf knitted Tom,Non-sensible,edin_semantics,emo_sem_emo_sem,3.79583177249879,1,1,1,1,273759.731047272,66,A
9,1,27/3/95,21,m,33,The hill climbed Luke,Non-sensible,edin_semantics,emo_sem_emo_sem,2.79644082300365,1,1,1,1,273763.271115034,68,A
9,1,27/3/95,21,m,34,Zoe paid the debt,Sensible,edin_semantics,emo_sem_emo_sem,4.97324860293884,2,1,1,1,273768.987122382,134,A
9,1,27/3/95,21,m,35,The wall punched Jane,Non-sensible,edin_semantics,emo_sem_emo_sem,3.36158581485506,2,1,1,1,273773.091709087,50,A
9,1,27/3/95,21,m,36,The eggs whisked Dan,Non-sensible,edin_semantics,emo_sem_emo_sem,2.50156608404359,2,1,1,1,273776.33780847,62,A
9,1,27/3/95,21,m,37,The lever pulled Hugh,Non-sensible,edin_semantics,emo_sem_emo_sem,2.84319402894471,2,2,2,1,273779.924950481,45,A
9,1,27/3/95,21,m,38,Jack drank the beer,Sensible,edin_semantics,emo_sem_emo_sem,3.30187449004734,2,2,2,1,273783.970805024,135,A
9,1,27/3/95,21,m,39,The kettle got Lily,Non-sensible,edin_semantics,emo_sem_emo_sem,3.59613312262809,1,2,2,1,273788.310663868,13,A
9,1,27/3/95,21,m,40,Jane licked the plate,Sensible,edin_semantics,emo_sem_emo_sem,3.20757589559071,2,1,1,1,273792.262488903,96,A
9,1,27/3/95,21,m,41,Tom offered the sweets,Sensible,edin_semantics,emo_sem_emo_sem,3.30174620141042,1,1,1,1,273796.308279623,84,A
9,1,27/3/95,21,m,42,Ian filed the report,Sensible,edin_semantics,emo_sem_emo_sem,2.25615657377057,1,2,2,1,273799.307376471,99,A
9,1,27/3/95,21,m,43,Rose built the shed,Sensible,edin_semantics,emo_sem_emo_sem,3.0904043915798,2,2,2,1,273803.141520696,121,A
9,1,27/3/95,21,m,44,Joe iced the donut,Sensible,edin_semantics,emo_sem_emo_sem,2.94949082226958,1,2,2,1,273806.834511451,119,A
9,1,27/3/95,21,m,45,The number dialed Tom,Non-sensible,edin_semantics,emo_sem_emo_sem,2.0906542337616,2,2,2,1,273809.669000131,63,A
9,1,27/3/95,21,m,46,The photo took Beth,Non-sensible,edin_semantics,emo_sem_emo_sem,3.05519877048209,1,2,2,1,273813.467810125,53,A
9,1,27/3/95,21,m,47,The juice drank Matt,Non-sensible,edin_semantics,emo_sem_emo_sem,2.91300969093572,1,1,1,1,273817.125589807,60,A
9,1,27/3/95,21,m,48,Erin punched the monitor,Sensible,edin_semantics,emo_sem_emo_sem,2.71351983089698,1,2,2,1,273820.583350439,125,A
9,1,27/3/95,21,m,49,The spoon licked Will,Non-sensible,edin_semantics,emo_sem_emo_sem,2.85309246275574,1,2,2,1,273824.182249786,21,A
9,1,27/3/95,21,m,50,Kate hugged the pillow,Sensible,edin_semantics,emo_sem_emo_sem,2.66710113763111,1,1,1,1,273827.593018915,86,A
9,1,27/3/95,21,m,51,Tim took the ticket,Sensible,edin_semantics,emo_sem_emo_sem,2.23121853719931,1,1,1,1,273830.568584091,128,A
9,1,27/3/95,21,m,52,The herbs chopped Phil,Non-sensible,edin_semantics,emo_sem_emo_sem,2.59528160648188,1,2,2,1,273833.908766543,27,A
9,1,27/3/95,21,m,53,The lesson taught Eve,Non-sensible,edin_semantics,emo_sem_emo_sem,2.59699971263763,1,2,2,1,273837.248910508,15,A
9,1,27/3/95,21,m,54,Kate wore the dress,Sensible,edin_semantics,emo_sem_emo_sem,3.05587517254753,2,1,1,1,273841.047764441,100,A
9,1,27/3/95,21,m,55,Tom whisked the cream,Sensible,edin_semantics,emo_sem_emo_sem,3.53716138203163,2,2,2,1,273845.328861618,137,A
9,1,27/3/95,21,m,56,Jay sold the bed,Sensible,edin_semantics,emo_sem_emo_sem,3.50170656020055,2,2,2,1,273849.574628091,113,A
9,1,27/3/95,21,m,57,The plans cancelled Ian,Non-sensible,edin_semantics,emo_sem_emo_sem,2.19637404876994,2,2,2,1,273852.514930878,7,A
9,1,27/3/95,21,m,58,The story wrote Ewan,Non-sensible,edin_semantics,emo_sem_emo_sem,2.54949954588665,2,1,1,1,273855.808092642,74,A
9,1,27/3/95,21,m,59,Ella mashed the turnip,Sensible,edin_semantics,emo_sem_emo_sem,2.6319461906096,1,2,2,1,273859.183514712,103,A
9,1,27/3/95,21,m,60,The sheets counted Bill,Non-sensible,edin_semantics,emo_sem_emo_sem,2.18388354207855,2,1,1,1,273862.112054389,48,A
9,1,27/3/95,21,m,61,Luke fixed the radio,Sensible,edin_semantics,emo_sem_emo_sem,2.20754927565577,1,1,1,1,273865.064090459,112,A
9,1,27/3/95,21,m,62,The gun carried Ryan,Non-sensible,edin_semantics,emo_sem_emo_sem,2.3373398957192,1,2,2,1,273868.145538376,75,A
9,1,27/3/95,21,m,63,The milk sniffed Phil,Non-sensible,edin_semantics,emo_sem_emo_sem,2.2199958434212,1,1,1,1,273871.109361931,18,A
9,1,27/3/95,21,m,64,Tom visited the hospital,Sensible,edin_semantics,emo_sem_emo_sem,2.23234876047354,1,2,2,1,273874.084914919,91,A
9,1,27/3/95,21,m,65,The bushes trimmed Jon,Non-sensible,edin_semantics,emo_sem_emo_sem,2.23248121858342,1,1,1,1,273877.060510243,32,A
9,1,27/3/95,21,m,66,Lucy cut the ribbon,Sensible,edin_semantics,emo_sem_emo_sem,2.28998212941224,2,2,2,1,273880.094897061,95,A
9,1,27/3/95,21,m,67,The house built Kate,Non-sensible,edin_semantics,emo_sem_emo_sem,1.99562086589867,1,1,1,1,273882.835207738,46,A
9,1,27/3/95,21,m,68,Phil cancelled the party,Sensible,edin_semantics,emo_sem_emo_sem,2.09097142756218,2,1,1,1,273885.669632915,82,A
9,1,27/3/95,21,m,69,Hugh dialed the hotline,Sensible,edin_semantics,emo_sem_emo_sem,2.58527124073589,2,1,1,1,273888.998067331,138,A
9,1,27/3/95,21,m,70,The fruits mixed Jack,Non-sensible,edin_semantics,emo_sem_emo_sem,1.92589436454,2,1,1,1,273891.667881454,8,A
9,1,27/3/95,21,m,71,The ham ate Tim,Non-sensible,edin_semantics,emo_sem_emo_sem,2.72668738104403,2,2,2,1,273895.137402629,67,A
9,1,27/3/95,21,m,72,The thread measured Amy,Non-sensible,edin_semantics,emo_sem_emo_sem,2.97209496697178,1,2,2,1,273898.853950714,51,A
9,1,27/3/95,21,m,73,The sofa sold Carl,Non-sensible,edin_semantics,emo_sem_emo_sem,3.69004845467862,2,1,1,1,273903.287928869,38,A
9,1,27/3/95,21,m,74,Emma pulled the rope,Sensible,edin_semantics,emo_sem_emo_sem,3.17269805201795,1,1,1,1,273907.204374131,120,A
9,1,27/3/95,21,m,75,The box lifted Kate,Non-sensible,edin_semantics,emo_sem_emo_sem,2.7483370580012,2,2,2,1,273910.697480539,69,A
9,1,27/3/95,21,m,76,The lorry dented Lily,Non-sensible,edin_semantics,emo_sem_emo_sem,3.03159108757973,2,2,2,1,273914.472782915,71,A
9,1,27/3/95,21,m,77,Jack cleaned the bath,Sensible,edin_semantics,emo_sem_emo_sem,2.91374799230834,2,1,1,1,273918.130502943,80,A
9,1,27/3/95,21,m,78,The garlic crushed Erin,Non-sensible,edin_semantics,emo_sem_emo_sem,1.87868573376909,2,1,1,1,273920.753284511,6,A
9,1,27/3/95,21,m,79,The room tidied Sam,Non-sensible,edin_semantics,emo_sem_emo_sem,1.59693717194023,2,1,1,1,273923.09372354,2,A
9,1,27/3/95,21,m,80,The flour weighed Jen,Non-sensible,edin_semantics,emo_sem_emo_sem,2.72544618806569,1,1,1,1,273926.563268128,64,A
9,1,27/3/95,21,m,81,Alex wrote the report,Sensible,edin_semantics,emo_sem_emo_sem,2.98491677915445,2,2,2,1,273930.291549496,149,A
9,1,27/3/95,21,m,82,Ben got the radio,Sensible,edin_semantics,emo_sem_emo_sem,2.80828218889656,2,1,1,1,273933.843434249,88,A
9,1,27/3/95,21,m,83,The bike kicked Matt,Non-sensible,edin_semantics,emo_sem_emo_sem,3.38469253049698,1,2,2,1,273937.971616771,39,A
9,1,27/3/95,21,m,84,John carried the kettle,Sensible,edin_semantics,emo_sem_emo_sem,2.08985820249654,1,2,2,1,273940.806067285,105,A
9,1,27/3/95,21,m,85,The jumper wore Joe,Non-sensible,edin_semantics,emo_sem_emo_sem,2.913437533658,2,2,2,1,273944.463774805,25,A
9,1,27/3/95,21,m,86,The towels passed Phil,Non-sensible,edin_semantics,emo_sem_emo_sem,4.23057516949484,1,2,2,1,273949.438759153,43,A
9,1,27/3/95,21,m,87,The bill paid Mike,Non-sensible,edin_semantics,emo_sem_emo_sem,1.83085586508969,1,2,2,1,273952.014445947,59,A
9,1,27/3/95,21,m,88,Ryan knitted the socks,Sensible,edin_semantics,emo_sem_emo_sem,5.27873089135392,2,2,2,1,273958.036183822,141,A
9,1,27/3/95,21,m,89,Sam sucked the candy,Sensible,edin_semantics,emo_sem_emo_sem,4.64327215676894,1,2,2,1,273963.422816398,87,A
9,1,27/3/95,21,m,90,The cake iced Mary,Non-sensible,edin_semantics,emo_sem_emo_sem,3.05458041909151,2,1,1,1,273967.221667445,44,A
9,1,27/3/95,21,m,91,The trolley pushed Matt,Non-sensible,edin_semantics,emo_sem_emo_sem,3.07761240651598,1,1,1,1,273971.044045032,26,A
9,1,27/3/95,21,m,92,Adam chewed the fat,Sensible,edin_semantics,emo_sem_emo_sem,2.19580637128092,1,1,1,1,273973.984338197,106,A
9,1,27/3/95,21,m,93,Dan brushed the hair,Sensible,edin_semantics,emo_sem_emo_sem,2.3598301843158,2,2,2,1,273977.089284431,147,A
9,1,27/3/95,21,m,94,The letter typed Phil,Non-sensible,edin_semantics,emo_sem_emo_sem,3.34914662368828,1,2,2,1,273981.182178265,49,A
9,1,27/3/95,21,m,95,The laptop fixed Jen,Non-sensible,edin_semantics,emo_sem_emo_sem,1.96147106064018,1,2,2,1,273983.887240664,37,A
9,1,27/3/95,21,m,96,The toffee chewed Ben,Non-sensible,edin_semantics,emo_sem_emo_sem,2.03220591100398,2,2,2,1,273986.662857669,31,A
9,1,27/3/95,21,m,97,The coins polished Jon,Non-sensible,edin_semantics,emo_sem_emo_sem,2.24297170463251,2,2,2,1,273989.650239836,29,A
9,1,27/3/95,21,m,98,Mike ate the steak,Sensible,edin_semantics,emo_sem_emo_sem,2.21908467309549,1,1,1,1,273992.614002453,142,A
9,1,27/3/95,21,m,99,The wine stored Leo,Non-sensible,edin_semantics,emo_sem_emo_sem,2.99707277299603,2,1,1,1,273996.354088624,52,A
9,1,27/3/95,21,m,100,Josh scrubbed the pot,Sensible,edin_semantics,emo_sem_emo_sem,1.88938725477783,2,2,2,1,273998.988553122,131,A
9,1,27/3/95,21,m,101,Ian mailed the invite,Sensible,edin_semantics,emo_sem_emo_sem,3.46680241747526,1,2,2,1,274003.199079336,89,A
9,1,27/3/95,21,m,102,Jack posted the gift,Sensible,edin_semantics,emo_sem_emo_sem,2.83209224726306,2,2,2,1,274006.774484857,111,A
9,1,27/3/95,21,m,103,Max searched the internet,Sensible,edin_semantics,emo_sem_emo_sem,2.51428173732711,2,2,2,1,274010.032340935,85,A
9,1,27/3/95,21,m,104,Lucy wiped the desk,Sensible,edin_semantics,emo_sem_emo_sem,3.77178726659622,1,2,2,1,274014.548656689,115,A
9,1,27/3/95,21,m,105,The card posted Erin,Non-sensible,edin_semantics,emo_sem_emo_sem,2.36051524581853,2,1,1,1,274017.653562192,36,A
9,1,27/3/95,21,m,106,Alex dusted the house,Sensible,edin_semantics,emo_sem_emo_sem,2.2790054291836,2,1,1,1,274020.676207068,122,A
9,1,27/3/95,21,m,107,The book read Sean,Non-sensible,edin_semantics,emo_sem_emo_sem,2.13794304494513,2,1,1,1,274023.557690137,4,A
9,1,27/3/95,21,m,108,The garden watered Jeff,Non-sensible,edin_semantics,emo_sem_emo_sem,2.7371429085033,2,1,1,1,274027.03902253,54,A
9,1,27/3/95,21,m,109,The room entered Ryan,Non-sensible,edin_semantics,emo_sem_emo_sem,2.32562617701478,1,1,1,1,274030.10867751,58,A
9,1,27/3/95,21,m,110,The bucket lent Max,Non-sensible,edin_semantics,emo_sem_emo_sem,2.84303751675179,1,2,2,1,274033.695857366,19,A
9,1,27/3/95,21,m,111,Fred stored the rice,Sensible,edin_semantics,emo_sem_emo_sem,2.58443672291469,2,2,2,1,274037.024219299,127,A
9,1,27/3/95,21,m,112,Leo carried the wallet,Sensible,edin_semantics,emo_sem_emo_sem,1.78433582384605,1,1,1,1,274039.55287001,150,A
9,1,27/3/95,21,m,113,The bowl scrubbed Liz,Non-sensible,edin_semantics,emo_sem_emo_sem,1.5967351172003,1,1,1,1,274041.893363562,56,A
9,1,27/3/95,21,m,114,The teeth brushed Carl,Non-sensible,edin_semantics,emo_sem_emo_sem,1.92613330221502,1,1,1,1,274044.563149461,72,A
9,1,27/3/95,21,m,115,Ryan stroked the blanket,Sensible,edin_semantics,emo_sem_emo_sem,3.12523957912344,2,1,1,1,274048.432588147,116,A
9,1,27/3/95,21,m,116,The pen described John,Non-sensible,edin_semantics,emo_sem_emo_sem,3.5722839361988,1,1,1,1,274052.7489599,42,A
9,1,27/3/95,21,m,117,The money offered Matt,Non-sensible,edin_semantics,emo_sem_emo_sem,3.65422255778685,2,2,2,1,274057.147602541,9,A
9,1,27/3/95,21,m,118,The handle pulled Tim,Non-sensible,edin_semantics,emo_sem_emo_sem,4.30115190410288,2,2,2,1,274062.193183189,73,A
9,1,27/3/95,21,m,119,Tom grated the carrots,Sensible,edin_semantics,emo_sem_emo_sem,2.19627237995155,1,1,1,1,274065.13346577,140,A
9,1,27/3/95,21,m,120,The dish served Kate,Non-sensible,edin_semantics,emo_sem_emo_sem,2.80772894399706,1,1,1,1,274068.685337694,70,A
9,1,27/3/95,21,m,121,Ben climbed the stairs,Sensible,edin_semantics,emo_sem_emo_sem,3.00797763158334,2,2,2,1,274072.437159714,143,A
9,1,27/3/95,21,m,122,The floor cleaned Tim,Non-sensible,edin_semantics,emo_sem_emo_sem,2.52505221351748,2,2,2,1,274075.706734963,5,A
9,1,27/3/95,21,m,123,Andy pulled the rope,Sensible,edin_semantics,emo_sem_emo_sem,2.31393555033719,2,1,1,1,274078.764659227,148,A
9,1,27/3/95,21,m,124,The shirt ironed Josh,Non-sensible,edin_semantics,emo_sem_emo_sem,2.61985626537353,2,2,2,1,274082.128381369,55,A
9,1,27/3/95,21,m,125,The parcel mailed Rob,Non-sensible,edin_semantics,emo_sem_emo_sem,3.55979278811719,2,1,1,1,274086.432935489,14,A
9,1,27/3/95,21,m,126,The room searched Jen,Non-sensible,edin_semantics,emo_sem_emo_sem,2.00827975140419,2,1,1,1,274089.185061232,10,A
9,1,27/3/95,21,m,127,Liam mixed the nuts,Sensible,edin_semantics,emo_sem_emo_sem,2.00809918512823,1,2,2,1,274091.937168374,83,A
9,1,27/3/95,21,m,128,Jay squeezed the lemon,Sensible,edin_semantics,emo_sem_emo_sem,2.04335964965867,1,1,1,1,274094.724545281,76,A
9,1,27/3/95,21,m,129,Leo passed the salt,Sensible,edin_semantics,emo_sem_emo_sem,1.67868560552597,1,1,1,1,274097.14732223,118,A
9,1,27/3/95,21,m,130,The shelf dusted Jake,Non-sensible,edin_semantics,emo_sem_emo_sem,2.51390617218567,1,2,2,1,274100.405237321,47,A
9,1,27/3/95,21,m,131,Erin tidied the garage,Sensible,edin_semantics,emo_sem_emo_sem,1.99640599265695,2,2,2,1,274103.145568203,77,A
9,1,27/3/95,21,m,132,The table wiped Beth,Non-sensible,edin_semantics,emo_sem_emo_sem,2.11368397623301,2,1,1,1,274106.003531787,40,A
9,1,27/3/95,21,m,133,Rob measured the curtains,Sensible,edin_semantics,emo_sem_emo_sem,2.10235512355575,1,1,1,1,274108.849741562,126,A
9,1,27/3/95,21,m,134,The cheese grated Andy,Non-sensible,edin_semantics,emo_sem_emo_sem,2.18467796978075,1,2,2,1,274111.778269052,65,A
9,1,27/3/95,21,m,135,Josh crushed the ice,Sensible,edin_semantics,emo_sem_emo_sem,2.66618740151171,2,2,2,1,274115.189023107,81,A
9,1,27/3/95,21,m,136,The picture painted Ryan,Non-sensible,edin_semantics,emo_sem_emo_sem,1.89025576919084,2,2,2,1,274117.823521601,35,A
9,1,27/3/95,21,m,137,The mirror kissed Max,Non-sensible,edin_semantics,emo_sem_emo_sem,1.43190436851,2,2,2,1,274119.999334182,23,A
9,1,27/3/95,21,m,138,Ian dented the bowl,Sensible,edin_semantics,emo_sem_emo_sem,1.38499272603076,1,1,1,1,274122.128111001,146,A
9,1,27/3/95,21,m,139,Owen swallowed the gum,Sensible,edin_semantics,emo_sem_emo_sem,1.56123699794989,2,2,2,1,274124.433316185,97,A
9,1,27/3/95,21,m,140,Bill trimmed the hair,Sensible,edin_semantics,emo_sem_emo_sem,2.40812509943498,1,2,2,1,274127.585253601,107,A
9,1,27/3/95,21,m,141,Adam watched the opera,Sensible,edin_semantics,emo_sem_emo_sem,1.58478534733877,2,1,1,1,274129.914023492,108,A
9,1,27/3/95,21,m,142,Lucy counted the shoes,Sensible,edin_semantics,emo_sem_emo_sem,1.90269367740257,1,2,2,1,274132.560263287,123,A
9,1,27/3/95,21,m,143,Hugh kissed the rose,Sensible,edin_semantics,emo_sem_emo_sem,1.76192154636374,2,1,1,1,274135.065431717,98,A
9,1,27/3/95,21,m,144,The puzzle solved Joe,Non-sensible,edin_semantics,emo_sem_emo_sem,2.36147292080568,1,1,1,1,274138.170344275,34,A
9,1,27/3/95,21,m,145,Joe entered the office,Sensible,edin_semantics,emo_sem_emo_sem,1.87950132903643,2,2,2,1,274140.793100827,133,A
9,1,27/3/95,21,m,146,Sara jumped the hedge,Sensible,edin_semantics,emo_sem_emo_sem,1.59716969518922,2,1,1,1,274143.133568722,92,A
9,1,27/3/95,21,m,147,Eve ironed the trousers,Sensible,edin_semantics,emo_sem_emo_sem,1.65506541437935,1,1,1,1,274145.532846713,130,A
9,1,27/3/95,21,m,148,Anna polished the trophy,Sensible,edin_semantics,emo_sem_emo_sem,1.77370550308842,1,1,1,1,274148.049762538,104,A
9,1,27/3/95,21,m,149,Tim sniffed the perfume,Sensible,edin_semantics,emo_sem_emo_sem,1.92643510131165,1,2,2,1,274150.719524062,93,A
9,1,27/3/95,21,m,150,The tomato sliced Liz,Non-sensible,edin_semantics,emo_sem_emo_sem,1.97318542073481,1,2,2,1,274153.436362079,3,A
9,1,27/3/95,21,m,151,Max kissed the mirror,Sensible,edin_semantics,emo_sem_emo_sem,1.76717881648801,1,1,1,1,274158.528948341,23,B
9,1,27/3/95,21,m,152,The button pushed Ian,Non-sensible,edin_semantics,emo_sem_emo_sem,1.56180788256461,2,1,1,1,274160.834129151,101,B
9,1,27/3/95,21,m,153,The stairs climbed Ben,Non-sensible,edin_semantics,emo_sem_emo_sem,1.78539356397232,2,1,1,1,274163.362796539,143,B
9,1,27/3/95,21,m,154,The ticket took Tim,Non-sensible,edin_semantics,emo_sem_emo_sem,2.51438565115677,2,2,2,1,274166.620677634,128,B
9,1,27/3/95,21,m,155,The sweets offered Tom,Non-sensible,edin_semantics,emo_sem_emo_sem,1.72644299105741,1,2,2,1,274169.090534925,84,B
9,1,27/3/95,21,m,156,Liz labeled the jar,Sensible,edin_semantics,emo_sem_emo_sem,2.02039308933308,2,1,1,1,274171.854350333,61,B
9,1,27/3/95,21,m,157,Ben chewed the toffee,Sensible,edin_semantics,emo_sem_emo_sem,2.22037429508055,2,1,1,1,274174.818220392,31,B
9,1,27/3/95,21,m,158,Sean read the book,Sensible,edin_semantics,emo_sem_emo_sem,2.03207794309128,1,2,2,1,274177.593845735,4,B
9,1,27/3/95,21,m,159,The turnip mashed Ella,Non-sensible,edin_semantics,emo_sem_emo_sem,1.83248320699204,1,1,1,1,274180.169540547,103,B
9,1,27/3/95,21,m,160,Jon trimmed the bushes,Sensible,edin_semantics,emo_sem_emo_sem,2.16106996609597,2,2,2,1,274183.074513914,32,B
9,1,27/3/95,21,m,161,Ella watched the movie,Sensible,edin_semantics,emo_sem_emo_sem,1.79701651842333,2,1,1,1,274185.614937998,33,B
9,1,27/3/95,21,m,162,Liz sliced the tomato,Sensible,edin_semantics,emo_sem_emo_sem,1.87914115859894,1,1,1,1,274188.237679155,3,B
9,1,27/3/95,21,m,163,Mike paid the bill,Sensible,edin_semantics,emo_sem_emo_sem,3.17279491003137,2,1,1,1,274192.154145905,59,B
9,1,27/3/95,21,m,164,Amy hugged the tree,Sensible,edin_semantics,emo_sem_emo_sem,2.3848804734298,1,1,1,1,274195.282642093,11,B
9,1,27/3/95,21,m,165,Rob mailed the parcel,Sensible,edin_semantics,emo_sem_emo_sem,1.60882472177036,1,2,2,1,274197.634877587,14,B
9,1,27/3/95,21,m,166,Leo stored the wine,Sensible,edin_semantics,emo_sem_emo_sem,3.98459701956017,2,2,2,1,274202.362892114,52,B
9,1,27/3/95,21,m,167,The plants watered Luke,Non-sensible,edin_semantics,emo_sem_emo_sem,2.03221841919003,2,1,1,1,274205.138498214,129,B
9,1,27/3/95,21,m,168,The church described Erin,Non-sensible,edin_semantics,emo_sem_emo_sem,1.72601611050777,2,1,1,1,274207.608344922,117,B
9,1,27/3/95,21,m,169,Carl brushed the teeth,Sensible,edin_semantics,emo_sem_emo_sem,2.30302042869153,2,2,2,1,274210.654513132,72,B
9,1,27/3/95,21,m,170,Luke swallowed the pill,Sensible,edin_semantics,emo_sem_emo_sem,2.71469335159054,1,2,2,1,274214.112527133,22,B
9,1,27/3/95,21,m,171,The hospital visited Tom,Non-sensible,edin_semantics,emo_sem_emo_sem,1.96153552574106,2,1,1,1,274216.81736599,91,B
9,1,27/3/95,21,m,172,Lily dented the lorry,Sensible,edin_semantics,emo_sem_emo_sem,1.74989191681379,2,1,1,1,274219.310732182,71,B
9,1,27/3/95,21,m,173,Jeff watered the garden,Sensible,edin_semantics,emo_sem_emo_sem,2.24392681382596,1,2,2,1,274222.298095426,54,B
9,1,27/3/95,21,m,174,Kate lifted the box,Sensible,edin_semantics,emo_sem_emo_sem,1.80874082096852,1,1,1,1,274224.850240285,69,B
9,1,27/3/95,21,m,175,The poster read Luke,Non-sensible,edin_semantics,emo_sem_emo_sem,1.72573772404576,2,1,1,1,274227.320035677,79,B
9,1,27/3/95,21,m,176,The steak ate Mike,Non-sensible,edin_semantics,emo_sem_emo_sem,2.63182207132922,2,2,2,1,274230.695523816,142,B
9,1,27/3/95,21,m,177,Phil typed the letter,Sensible,edin_semantics,emo_sem_emo_sem,2.2322256033076,2,1,1,1,274233.671155381,49,B
9,1,27/3/95,21,m,178,The curtains measured Rob,Non-sensible,edin_semantics,emo_sem_emo_sem,1.51467430067714,2,2,2,1,274235.929277016,126,B
9,1,27/3/95,21,m,179,The socks knitted Ryan,Non-sensible,edin_semantics,emo_sem_emo_sem,1.60880259197438,1,1,1,1,274238.281513794,141,B
9,1,27/3/95,21,m,180,Jane punched the wall,Sensible,edin_semantics,emo_sem_emo_sem,2.09087489033118,1,2,2,1,274241.115967835,50,B
9,1,27/3/95,21,m,181,Luke climbed the hill,Sensible,edin_semantics,emo_sem_emo_sem,1.2669741960126,1,2,2,1,274243.127094954,68,B
9,1,27/3/95,21,m,182,The bath cleaned Jack,Non-sensible,edin_semantics,emo_sem_emo_sem,2.57271562761161,2,2,2,1,274246.443762412,80,B
9,1,27/3/95,21,m,183,Beth took the photo,Sensible,edin_semantics,emo_sem_emo_sem,1.6440341915004,2,1,1,1,274248.831274407,53,B
9,1,27/3/95,21,m,184,The bed sold Jay,Non-sensible,edin_semantics,emo_sem_emo_sem,1.69137720466824,1,1,1,1,274251.265853274,113,B
9,1,27/3/95,21,m,185,Jack mixed the fruits,Sensible,edin_semantics,emo_sem_emo_sem,1.71433253964642,1,2,2,1,274253.723936551,8,B
9,1,27/3/95,21,m,186,The dress wore Kate,Non-sensible,edin_semantics,emo_sem_emo_sem,2.05576195783215,1,2,2,1,274256.523074964,100,B
9,1,27/3/95,21,m,187,The salt passed Leo,Non-sensible,edin_semantics,emo_sem_emo_sem,2.34989935747581,2,2,2,1,274259.616282463,118,B
9,1,27/3/95,21,m,188,Phil passed the towels,Sensible,edin_semantics,emo_sem_emo_sem,1.74969755945494,2,1,1,1,274262.109638713,43,B
9,1,27/3/95,21,m,189,The report wrote Alex,Non-sensible,edin_semantics,emo_sem_emo_sem,1.70242510508979,1,1,1,1,274264.55596754,149,B
9,1,27/3/95,21,m,190,Max lent the bucket,Sensible,edin_semantics,emo_sem_emo_sem,1.8204224674264,2,1,1,1,274267.119914316,19,B
9,1,27/3/95,21,m,191,The hair trimmed Bill,Non-sensible,edin_semantics,emo_sem_emo_sem,1.66706714115571,2,1,1,1,274269.530941947,107,B
9,1,27/3/95,21,m,192,Liz scrubbed the bowl,Sensible,edin_semantics,emo_sem_emo_sem,1.65564239275409,1,2,2,1,274271.9302209,56,B
9,1,27/3/95,21,m,193,Dan whisked the eggs,Sensible,edin_semantics,emo_sem_emo_sem,1.35015048267087,2,2,2,1,274274.023729237,62,B
9,1,27/3/95,21,m,194,The pot scrubbed Josh,Non-sensible,edin_semantics,emo_sem_emo_sem,1.50251862750156,2,1,1,1,274276.270105402,131,B
9,1,27/3/95,21,m,195,Tim cleaned the floor,Sensible,edin_semantics,emo_sem_emo_sem,1.53675021679373,2,1,1,1,274278.55176352,5,B
9,1,27/3/95,21,m,196,The beer drank Jack,Non-sensible,edin_semantics,emo_sem_emo_sem,2.27894898218801,1,1,1,1,274281.574398454,135,B
9,1,27/3/95,21,m,197,The trousers ironed Eve,Non-sensible,edin_semantics,emo_sem_emo_sem,1.78527201048564,2,2,2,1,274284.10300683,130,B
9,1,27/3/95,21,m,198,Amy measured the thread,Sensible,edin_semantics,emo_sem_emo_sem,1.3724945220747,2,1,1,1,274286.220031764,51,B
9,1,27/3/95,21,m,199,The rose kissed Hugh,Non-sensible,edin_semantics,emo_sem_emo_sem,1.30269842408597,1,2,2,1,274288.266544429,98,B
9,1,27/3/95,21,m,200,Ewan wrote the story,Sensible,edin_semantics,emo_sem_emo_sem,2.31412156886654,2,2,2,1,274291.324415453,74,B
9,1,27/3/95,21,m,201,John described the pen,Sensible,edin_semantics,emo_sem_emo_sem,2.49076064920519,2,2,2,1,274294.558743066,42,B
9,1,27/3/95,21,m,202,The car lent Fred,Non-sensible,edin_semantics,emo_sem_emo_sem,2.86732224316802,1,2,2,1,274298.169400392,94,B
9,1,27/3/95,21,m,203,Jon cut the paper,Sensible,edin_semantics,emo_sem_emo_sem,2.63155715516768,2,2,2,1,274301.544868324,20,B
9,1,27/3/95,21,m,204,The gift posted Jack,Non-sensible,edin_semantics,emo_sem_emo_sem,1.82042022235692,2,1,1,1,274304.108802592,111,B
9,1,27/3/95,21,m,205,The box labeled Ian,Non-sensible,edin_semantics,emo_sem_emo_sem,2.06685604213271,2,2,2,1,274306.919720793,136,B
9,1,27/3/95,21,m,206,The carrots grated Tom,Non-sensible,edin_semantics,emo_sem_emo_sem,1.92602650186745,1,2,2,1,274309.58952369,140,B
9,1,27/3/95,21,m,207,The rules taught Josh,Non-sensible,edin_semantics,emo_sem_emo_sem,1.71440983359935,2,2,2,1,274312.047615306,90,B
9,1,27/3/95,21,m,208,The blanket stroked Ryan,Non-sensible,edin_semantics,emo_sem_emo_sem,1.65581333736191,2,2,2,1,274314.446894901,116,B
9,1,27/3/95,21,m,209,The trophy polished Anna,Non-sensible,edin_semantics,emo_sem_emo_sem,1.667251235398,2,2,2,1,274316.857921569,104,B
9,1,27/3/95,21,m,210,The report filed Ian,Non-sensible,edin_semantics,emo_sem_emo_sem,1.59711388952564,1,1,1,1,274319.198389464,99,B
9,1,27/3/95,21,m,211,The pillow hugged Kate,Non-sensible,edin_semantics,emo_sem_emo_sem,1.56144225981552,2,2,2,1,274321.503581178,86,B
9,1,27/3/95,21,m,212,The monitor punched Erin,Non-sensible,edin_semantics,emo_sem_emo_sem,1.98468970815884,1,1,1,1,274324.23221502,125,B
9,1,27/3/95,21,m,213,The door kicked Max,Non-sensible,edin_semantics,emo_sem_emo_sem,1.67901145876385,1,2,2,1,274326.654964708,114,B
9,1,27/3/95,21,m,214,The sugar weighed Liz,Non-sensible,edin_semantics,emo_sem_emo_sem,2.36164675198961,1,1,1,1,274329.759943976,139,B
9,1,27/3/95,21,m,215,The invite mailed Ian,Non-sensible,edin_semantics,emo_sem_emo_sem,1.72585382533725,2,1,1,1,274332.229779459,89,B
9,1,27/3/95,21,m,216,The ice crushed Josh,Non-sensible,edin_semantics,emo_sem_emo_sem,1.65552853653207,2,1,1,1,274334.629053602,81,B
9,1,27/3/95,21,m,217,The candy sucked Sam,Non-sensible,edin_semantics,emo_sem_emo_sem,1.31486307753948,1,1,1,1,274336.687316868,87,B
9,1,27/3/95,21,m,218,The plate licked Jane,Non-sensible,edin_semantics,emo_sem_emo_sem,2.78476591163781,2,2,2,1,274340.215609333,96,B
9,1,27/3/95,21,m,219,Jen weighed the flour,Sensible,edin_semantics,emo_sem_emo_sem,1.4788487245678,1,2,2,1,274342.438474994,64,B
9,1,27/3/95,21,m,220,Dan carried the folder,Sensible,edin_semantics,emo_sem_emo_sem,1.78523929684889,2,2,2,1,274344.967149759,30,B
9,1,27/3/95,21,m,221,Joe wore the jumper,Sensible,edin_semantics,emo_sem_emo_sem,1.69096122862538,2,1,1,1,274347.401694309,25,B
9,1,27/3/95,21,m,222,Joe solved the puzzle,Sensible,edin_semantics,emo_sem_emo_sem,4.05491942184744,1,2,2,1,274352.200243235,34,B
9,1,27/3/95,21,m,223,The rope pulled Emma,Non-sensible,edin_semantics,emo_sem_emo_sem,1.46719049074454,1,2,2,1,274354.411366954,120,B
9,1,27/3/95,21,m,224,The rice stored Fred,Non-sensible,edin_semantics,emo_sem_emo_sem,1.40869726694655,2,1,1,1,274356.563674804,127,B
9,1,27/3/95,21,m,225,Tim ate the ham,Sensible,edin_semantics,emo_sem_emo_sem,1.33842618012568,1,1,1,1,274358.645404315,67,B
9,1,27/3/95,21,m,226,Lily got the kettle,Sensible,edin_semantics,emo_sem_emo_sem,2.62036460929085,2,1,1,1,274362.009074179,13,B
9,1,27/3/95,21,m,227,The house dusted Alex,Non-sensible,edin_semantics,emo_sem_emo_sem,1.62024241429754,1,2,2,1,274364.373087536,122,B
9,1,27/3/95,21,m,228,Mark washed the dishes,Sensible,edin_semantics,emo_sem_emo_sem,1.51418391719926,1,1,1,1,274366.631237075,57,B
9,1,27/3/95,21,m,229,The gum swallowed Owen,Non-sensible,edin_semantics,emo_sem_emo_sem,1.46771390852518,2,1,1,1,274368.842365925,97,B
9,1,27/3/95,21,m,230,Jen fixed the laptop,Sensible,edin_semantics,emo_sem_emo_sem,2.49065545253688,1,1,1,1,274372.076633885,37,B
9,1,27/3/95,21,m,231,Jon polished the coins,Sensible,edin_semantics,emo_sem_emo_sem,1.98490811965894,2,1,1,1,274374.805237257,29,B
9,1,27/3/95,21,m,232,Ryan painted the picture,Sensible,edin_semantics,emo_sem_emo_sem,2.10260977660073,1,1,1,1,274377.651484236,35,B
9,1,27/3/95,21,m,233,Rob stroked the fur,Sensible,edin_semantics,emo_sem_emo_sem,1.50302568852203,1,1,1,1,274379.897822877,41,B
9,1,27/3/95,21,m,234,Carl sold the sofa,Sensible,edin_semantics,emo_sem_emo_sem,2.4198673623614,1,2,2,1,274383.061588188,38,B
9,1,27/3/95,21,m,235,The portrait painted Jay,Non-sensible,edin_semantics,emo_sem_emo_sem,2.66668901027879,2,2,2,1,274386.472377202,110,B
9,1,27/3/95,21,m,236,Leah sucked the lolly,Sensible,edin_semantics,emo_sem_emo_sem,2.09074179077288,1,2,2,1,274389.306808473,12,B
9,1,27/3/95,21,m,237,Matt drank the juice,Sensible,edin_semantics,emo_sem_emo_sem,2.00859021005454,2,2,2,1,274392.058881618,60,B
9,1,27/3/95,21,m,238,Tom knitted the scarf,Sensible,edin_semantics,emo_sem_emo_sem,1.49029079196043,2,2,2,1,274394.293493391,66,B
9,1,27/3/95,21,m,239,The donut iced Joe,Non-sensible,edin_semantics,emo_sem_emo_sem,1.59695224580355,1,1,1,1,274396.634017411,119,B
9,1,27/3/95,21,m,240,The party cancelled Phil,Non-sensible,edin_semantics,emo_sem_emo_sem,2.10271272831596,1,2,2,1,274399.480222376,82,B
9,1,27/3/95,21,m,241,The radio fixed Luke,Non-sensible,edin_semantics,emo_sem_emo_sem,1.59687463118462,2,2,2,1,274401.820665895,112,B
9,1,27/3/95,21,m,242,The radio got Ben,Non-sensible,edin_semantics,emo_sem_emo_sem,1.3971188928117,1,2,2,1,274403.961215125,88,B
9,1,27/3/95,21,m,243,The garage tidied Erin,Non-sensible,edin_semantics,emo_sem_emo_sem,1.514528372325,1,1,1,1,274406.219380058,77,B
9,1,27/3/95,21,m,244,Ian cancelled the plans,Sensible,edin_semantics,emo_sem_emo_sem,1.45549409103114,2,1,1,1,274408.418711802,7,B
9,1,27/3/95,21,m,245,The bowl dented Ian,Non-sensible,edin_semantics,emo_sem_emo_sem,1.78509112348547,1,2,2,1,274410.947340383,146,B
9,1,27/3/95,21,m,246,Will mashed the potatoes,Sensible,edin_semantics,emo_sem_emo_sem,1.77333763526985,1,2,2,1,274413.464347614,28,B
9,1,27/3/95,21,m,247,The cream whisked Tom,Non-sensible,edin_semantics,emo_sem_emo_sem,2.31428577844054,1,1,1,1,274416.522152248,137,B
9,1,27/3/95,21,m,248,The ribbon cut Lucy,Non-sensible,edin_semantics,emo_sem_emo_sem,1.57339651975781,1,1,1,1,274418.839100979,95,B
9,1,27/3/95,21,m,249,Bill counted the sheets,Sensible,edin_semantics,emo_sem_emo_sem,1.25556355935987,1,2,2,1,274420.838486155,48,B
9,1,27/3/95,21,m,250,Tim pulled the handle,Sensible,edin_semantics,emo_sem_emo_sem,1.14976228104206,1,1,1,1,274422.7320553,73,B
9,1,27/3/95,21,m,251,The onion sliced Liam,Non-sensible,edin_semantics,emo_sem_emo_sem,1.83036676450865,2,2,2,1,274425.307751715,78,B
9,1,27/3/95,21,m,252,The desk wiped Lucy,Non-sensible,edin_semantics,emo_sem_emo_sem,1.2557345040259,1,1,1,1,274427.307154211,115,B
9,1,27/3/95,21,m,253,The rope pulled Andy,Non-sensible,edin_semantics,emo_sem_emo_sem,1.40882780071115,1,2,2,1,274429.459437364,148,B
9,1,27/3/95,21,m,254,Jen searched the room,Sensible,edin_semantics,emo_sem_emo_sem,1.58468913083198,1,2,2,1,274431.788139583,10,B
9,1,27/3/95,21,m,255,The message typed Eve,Non-sensible,edin_semantics,emo_sem_emo_sem,2.36117272533011,2,2,2,1,274434.893106664,124,B
9,1,27/3/95,21,m,256,The fat chewed Adam,Non-sensible,edin_semantics,emo_sem_emo_sem,2.24362148682121,1,2,2,1,274437.880449062,106,B
9,1,27/3/95,21,m,257,Jon jumped the fence,Sensible,edin_semantics,emo_sem_emo_sem,1.51438084035181,1,1,1,1,274440.138613995,17,B
9,1,27/3/95,21,m,258,Erin posted the card,Sensible,edin_semantics,emo_sem_emo_sem,2.46692012232961,2,2,2,1,274443.34937626,36,B
9,1,27/3/95,21,m,259,The office entered Joe,Non-sensible,edin_semantics,emo_sem_emo_sem,1.46764367050491,1,1,1,1,274445.560470794,133,B
9,1,27/3/95,21,m,260,Beth wiped the table,Sensible,edin_semantics,emo_sem_emo_sem,2.73786902235588,2,2,2,1,274449.041805753,40,B
9,1,27/3/95,21,m,261,Sam tidied the room,Sensible,edin_semantics,emo_sem_emo_sem,1.86740434792591,1,2,2,1,274451.652767123,2,B
9,1,27/3/95,21,m,262,Erin crushed the garlic,Sensible,edin_semantics,emo_sem_emo_sem,1.5030391588225,1,2,2,1,274453.89923758,6,B
9,1,27/3/95,21,m,263,Tom dialed the number,Sensible,edin_semantics,emo_sem_emo_sem,2.00792759901378,2,1,1,1,274456.65127737,63,B
9,1,27/3/95,21,m,264,The nuts mixed Liam,Non-sensible,edin_semantics,emo_sem_emo_sem,1.43226325605065,1,1,1,1,274458.827092517,83,B
9,1,27/3/95,21,m,265,The hotline dialed Hugh,Non-sensible,edin_semantics,emo_sem_emo_sem,1.92574202170363,2,2,2,1,274461.496882585,138,B
9,1,27/3/95,21,m,266,Matt offered the money,Sensible,edin_semantics,emo_sem_emo_sem,1.53786600765307,1,1,1,1,274463.778546797,9,B
9,1,27/3/95,21,m,267,Matt pushed the trolley,Sensible,edin_semantics,emo_sem_emo_sem,2.04361013328889,2,2,2,1,274466.565942306,26,B
9,1,27/3/95,21,m,268,The wallet carried Leo,Non-sensible,edin_semantics,emo_sem_emo_sem,1.99687135982094,1,2,2,1,274469.306285055,150,B
9,1,27/3/95,21,m,269,The dessert served Fred,Non-sensible,edin_semantics,emo_sem_emo_sem,1.5259152756189,1,1,1,1,274471.576188723,145,B
9,1,27/3/95,21,m,270,Lara filed the papers,Sensible,edin_semantics,emo_sem_emo_sem,1.91454723075731,1,2,2,1,274474.23427277,24,B
9,1,27/3/95,21,m,271,The hedge jumped Sara,Non-sensible,edin_semantics,emo_sem_emo_sem,2.51429681124864,2,2,2,1,274477.492116019,92,B
9,1,27/3/95,21,m,272,Mary iced the cake,Sensible,edin_semantics,emo_sem_emo_sem,2.67862883774797,1,2,2,1,274480.914602074,44,B
9,1,27/3/95,21,m,273,Matt kicked the bike,Sensible,edin_semantics,emo_sem_emo_sem,1.36154347960837,1,1,1,1,274483.019865502,39,B
9,1,27/3/95,21,m,274,The kettle carried John,Non-sensible,edin_semantics,emo_sem_emo_sem,1.87853916396853,1,1,1,1,274485.642615639,105,B
9,1,27/3/95,21,m,275,Kate built the house,Sensible,edin_semantics,emo_sem_emo_sem,1.90268052782631,2,2,2,1,274488.288856717,46,B
9,1,27/3/95,21,m,276,The problem solved Phil,Non-sensible,edin_semantics,emo_sem_emo_sem,2.29064570262562,2,1,1,1,274491.32323199,109,B
9,1,27/3/95,21,m,277,The internet searched Max,Non-sensible,edin_semantics,emo_sem_emo_sem,1.93776267103385,1,1,1,1,274494.004814674,85,B
9,1,27/3/95,21,m,278,Will licked the spoon,Sensible,edin_semantics,emo_sem_emo_sem,1.56121166091179,1,1,1,1,274496.309980731,21,B
9,1,27/3/95,21,m,279,The debt paid Zoe,Non-sensible,edin_semantics,emo_sem_emo_sem,2.04401680838782,2,2,2,1,274499.097531469,134,B
9,1,27/3/95,21,m,280,Eve taught the lesson,Sensible,edin_semantics,emo_sem_emo_sem,1.61997012153734,2,1,1,1,274501.461387994,15,B
9,1,27/3/95,21,m,281,Jake dusted the shelf,Sensible,edin_semantics,emo_sem_emo_sem,1.24370744021144,1,1,1,1,274503.448993062,47,B
9,1,27/3/95,21,m,282,Josh squeezed the ball,Sensible,edin_semantics,emo_sem_emo_sem,1.57325925090117,1,1,1,1,274505.765950773,1,B
9,1,27/3/95,21,m,283,The shoes counted Lucy,Non-sensible,edin_semantics,emo_sem_emo_sem,1.57318099477561,1,1,1,1,274508.082922916,123,B
9,1,27/3/95,21,m,284,Kate served the dish,Sensible,edin_semantics,emo_sem_emo_sem,1.91447635128861,2,2,2,1,274510.740917482,70,B
9,1,27/3/95,21,m,285,Mary visited the museum,Sensible,edin_semantics,emo_sem_emo_sem,2.8900277360226,2,2,2,1,274514.375154909,16,B
9,1,27/3/95,21,m,286,Ryan entered the room,Sensible,edin_semantics,emo_sem_emo_sem,1.33802848518826,1,2,2,1,274516.456860365,58,B
9,1,27/3/95,21,m,287,The carrots chopped Fred,Non-sensible,edin_semantics,emo_sem_emo_sem,2.8197672329843,2,2,2,1,274520.02050438,102,B
9,1,27/3/95,21,m,288,Phil chopped the herbs,Sensible,edin_semantics,emo_sem_emo_sem,1.52629180287477,1,1,1,1,274522.290404841,27,B
9,1,27/3/95,21,m,289,Andy grated the cheese,Sensible,edin_semantics,emo_sem_emo_sem,1.50261259899708,1,1,1,1,274524.536791911,65,B
9,1,27/3/95,21,m,290,Phil sniffed the milk,Sensible,edin_semantics,emo_sem_emo_sem,1.65554874198278,1,2,2,1,274526.93610903,18,B
9,1,27/3/95,21,m,291,The lemon squeezed Jay,Non-sensible,edin_semantics,emo_sem_emo_sem,2.50200675567612,2,2,2,1,274530.182155173,76,B
9,1,27/3/95,21,m,292,The perfume sniffed Tim,Non-sensible,edin_semantics,emo_sem_emo_sem,2.11399892496411,2,1,1,1,274533.040146018,93,B
9,1,27/3/95,21,m,293,Hugh pulled the lever,Sensible,edin_semantics,emo_sem_emo_sem,1.58514038630528,1,1,2,0,274535.368831239,45,B
9,1,27/3/95,21,m,294,Josh ironed the shirt,Sensible,edin_semantics,emo_sem_emo_sem,1.96148677601013,2,1,1,1,274538.073874074,55,B
9,1,27/3/95,21,m,295,The crate lifted Amy,Non-sensible,edin_semantics,emo_sem_emo_sem,2.1141377974418,1,2,2,1,274540.931890898,144,B
9,1,27/3/95,21,m,296,The shed built Rose,Non-sensible,edin_semantics,emo_sem_emo_sem,1.50227391684894,1,1,1,1,274543.178257442,121,B
9,1,27/3/95,21,m,297,The pan washed Beth,Non-sensible,edin_semantics,emo_sem_emo_sem,1.20821028307546,2,2,2,1,274545.130625138,132,B
9,1,27/3/95,21,m,298,The opera watched Adam,Non-sensible,edin_semantics,emo_sem_emo_sem,1.60789142159047,1,2,2,1,274547.48286384,108,B
9,1,27/3/95,21,m,299,Ryan carried the gun,Sensible,edin_semantics,emo_sem_emo_sem,1.62041367968777,1,1,1,1,274549.846836465,75,B
9,1,27/3/95,21,m,300,The hair brushed Dan,Non-sensible,edin_semantics,emo_sem_emo_sem,1.2201462619123,1,1,1,1,274551.810968233,147,B
